File: Greenhouse gas exchange and TDL/20230314 TGA Sampling System_SiteAvg.dat
"TOA5","TGA Sampling System","CR3000","3722","CR3000.Std.28.02","CPU:TGAsampling_v1_2_LICOR_high_CO2__site_11_13_CalTank2.CR3","2183","SiteAvg"
"TIMESTAMP","RECORD","valve_number","diag_system_Avg","NumSamples","Conc12C_Avg","Conc13C_Avg","TGAStatus_Avg","TGAPressure_Avg","LaserTemp_Avg","DCCurrentA_Avg","DCCurrentB_Avg","TGAAnalog1_Avg","TGATemp1_Avg","TGATemp2_Avg","LaserCooler_Avg","RefDetSigA_Avg","RefDetSigB_Avg","RefDetTransA_Avg","RefDetTransB_Avg","RefDetTemp_Avg","RefDetCooler_Avg","RefDetGainOffset_Avg","SmpDetSigA_Avg","SmpDetSigB_Avg","SmpDetTransA_Avg","SmpDetTransB_Avg","SmpDetTemp_Avg","SmpDetCooler_Avg","SmpDetGainOffset_Avg","TGATemp1DutyCycle_Avg","TGATemp2DutyCycle_Avg","SampleFlow_Avg","ExcessFlow_Avg","SamplePress_Avg","BypassPress_Avg","SampleP_control_Avg","BypassP_control_Avg","TGAPress_control_Avg","panel_tmpr_Avg","batt_volt_Avg","buff_depth_Max","Conc12C_Std","Conc13C_Std","TGAStatus_Std","TGAPressure_Std","LaserTemp_Std","DCCurrentA_Std","DCCurrentB_Std","TGAAnalog1_Std","TGATemp1_Std","TGATemp2_Std","LaserCooler_Std","RefDetSigA_Std","RefDetSigB_Std","RefDetTransA_Std","RefDetTransB_Std","RefDetTemp_Std","RefDetCooler_Std","RefDetGainOffset_Std","SmpDetSigA_Std","SmpDetSigB_Std","SmpDetTransA_Std","SmpDetTransB_Std","SmpDetTemp_Std","SmpDetCooler_Std","SmpDetGainOffset_Std","TGATemp1DutyCycle_Std","TGATemp2DutyCycle_Std","SampleFlow_Std","ExcessFlow_Std","SamplePress_Std","BypassPress_Std","SampleP_control_Std","BypassP_control_Std","TGAPress_control_Std","panel_tmpr_Std","batt_volt_Std","Li64Match_Avg(1)","Li64Match_Avg(2)","Li64Tmpr_Avg(1)","Li64Tmpr_Avg(2)","Li64Heat_Avg(1)","Li64Heat_Avg(2)","_Mix_diag_system_Avg","_Mix_ExcessZeroFlow_Avg","_Mix_ExcessMixFlow_Avg","_Mix_CO2Press_Avg","_Mix_ZeroPress_Avg","_Mix_CO2P_control_Avg","_Mix_ZeroP_control_Avg","_Mix_MixTmpr1_Avg","_Mix_MixTmpr2_Avg","_Mix_MixHeat1_Avg","_Mix_MixHeat2_Avg","_Mix_panel_tmpr_Avg","_Mix_batt_volt_Avg"
"TS","RN","","","","ppm","ppm","","mb","degC","mA","mA","V","degC","degC","V","mV","mV","%","%","degC","","","mV","mV","%","%","degC","","","","","ml_min","ml_min","mb","mb","","","","degC","V","","ppm","ppm","","mb","degC","mA","mA","V","degC","degC","V","mV","mV","%","%","degC","","","mV","mV","%","%","degC","","","","","ml_min","ml_min","mb","mb","","","","degC","V","","","degC","degC","","","","","","","","","","","","","","",""
"","","Smp","Avg","Tot","Avg","Avg","Avg","Avg","Avg","Avg","Avg","Avg","Avg","Avg","Avg","Avg","Avg","Avg","Avg","Avg","Avg","Avg","Avg","Avg","Avg","Avg","Avg","Avg","Avg","Avg","Avg","Avg","Avg","Avg","Avg","Avg","Avg","Avg","Avg","Avg","Max","Std","Std","Std","Std","Std","Std","Std","Std","Std","Std","Std","Std","Std","Std","Std","Std","Std","Std","Std","Std","Std","Std","Std","Std","Std","Std","Std","Std","Std","Std","Std","Std","Std","Std","Std","Std","Avg","Avg","Avg","Avg","Avg","Avg","Avg","Avg","Avg","Avg","Avg","Avg","Avg","Avg","Avg","Avg","Avg","Avg","Avg"
"2023-03-14 09:46:54.9",0,20,0,100,3.040483,0.03232421,0,29.99873,-1.000002,73.47709,71.31904,0.02390418,20.86187,20.78608,2.192422,3.038006,2.212575,55.02782,42.64326,-20.00002,749.8193,12323,53.50127,50.42965,99.85953,99.95811,-26.99996,845.834,12664,1,1,169.9837,101.7831,399.9929,400.1074,0.392969,0.4684615,0.5277237,22.01521,11.76326,0,0.5643594,0.006226836,0,0.009395462,0.0002601907,0.0001374635,0.0002179994,1.197095E-05,0.0003237053,0.0003318326,0.0003124193,0.00116377,0.001151457,0.02342894,0.02540481,0.0005318274,0.05310668,0,0.008172305,0.01069167,0.01528528,0.02035765,0.0004906095,0.04766932,0,0,0,0.2220531,0.1391279,0.0216867,0.1995022,8.06544E-05,0.000245344,0.0004714703,0.006186406,0.002296423,1,0,-79.55009,"NAN",1,0,"NAN","NAN","NAN","NAN","NAN","NAN","NAN","NAN","NAN","NAN","NAN","NAN","NAN"
"2023-03-14 09:53:14.9",19,21,0,100,84.90982,0.9315643,0,29.99957,-1.000002,73.47697,71.31922,0.02390835,20.89737,20.82264,2.192146,3.04441,2.221771,55.14874,42.80433,-20.00003,749.7546,12323,52.42153,48.96893,97.89698,97.16252,-27.00002,845.7574,12667,1,1,170.0172,111.6591,399.9991,400.0327,0.3969094,0.4609581,0.5315789,21.98425,11.76145,0,0.07037108,0.0007681202,0,0.01372613,0.0002355006,0.0002351949,0.0002194851,1.101542E-05,0.0002278369,0.0003382388,0.0002824785,0.001218566,0.001332493,0.02753087,0.03100196,0.0005912766,0.05860177,0,0.00214908,0.002207045,0.005792388,0.005937902,0.0005784091,0.05678703,0,0,0,0.202405,0.1226905,0.01890855,0.0586444,4.609143E-05,8.581462E-05,0.0007058568,0.002141542,0.002100228,1,0,-76.99742,"NAN",1,0,960,0.5140049,167.6657,14.40704,16.95004,0,0,27.4897,27.58088,1,1,20.15455,9.518001
"2023-03-14 09:59:34.9",38,23,0,100,348.0879,3.827485,0,29.99961,-1,73.47718,71.3195,0.02390481,20.93329,20.86082,2.192192,3.041849,2.221199,55.10529,42.78784,-20.00001,749.7617,12323,49.10131,44.56868,91.79905,88.73797,-26.99999,845.7584,12665,1,1,169.9883,148.0151,399.9995,400.0573,0.4063063,0.4558058,0.5353745,21.9634,11.76024,0,0.1924612,0.002025,0,0.01102218,0.000243938,0.0001708566,0.0002679823,1.20757E-05,0.0002516509,0.0002833219,0.0002928942,0.00149601,0.001634758,0.03545432,0.03978501,0.0006284744,0.06176813,0,0.002714062,0.003039779,0.006662041,0.007230079,0.0005609742,0.05328844,0,0,0,0.2087807,0.1630426,0.01828952,0.1468632,3.975864E-05,0.0001524659,0.0005684533,0.001742116,0.002224358,1,0,-79.00957,"NAN",1,0,960,0.4851486,167.3249,14.70311,16.96074,0,0,27.48406,27.57843,1,1,20.18166,9.516385
"2023-03-14 10:05:54.9",57,26,4,100,1225.263,13.49191,0,30.00062,-0.9999993,73.47692,71.31918,0.02390718,20.97246,20.90147,2.19252,3.035369,2.214933,54.99178,42.66123,-19.99999,749.8359,12323,39.44462,32.51497,73.99277,65.49614,-26.99998,845.8199,12646.36,1,1,170.6426,1.264144,401.5132,399.8559,0.2992521,0.4693424,0.5364582,21.94666,11.75993,0,2.379351,0.02635621,0,0.009508231,0.0002566348,0.0002392603,0.0002743586,1.312524E-05,0.0003189982,0.0003719713,0.000307892,0.006632669,0.006012094,0.1468229,0.1393826,0.0008866973,0.08648255,0,0.02428555,0.0293432,0.04555856,0.05871194,0.001171767,0.1140262,1.967333,0,0,0.8364661,0.7313888,0.9529545,0.4691747,0.01285973,0.0005048687,0.0004877812,0.001300327,0.002090955,1,0,-77.07039,"NAN",1,0,960,0.5125978,168.0311,14.85091,16.95273,0,0,27.48693,27.60794,1,1,20.23588,9.524705
"2023-03-14 10:12:14.9",76,2,0,100,298.1578,3.288587,0,30,-0.9999972,73.47694,71.31926,0.02390866,21.01678,20.94794,2.193185,3.033552,2.217535,54.96633,42.70996,-19.99994,749.9916,12323,49.70618,45.38598,92.91201,90.27225,-26.99995,845.9899,12666,1,1,164.4988,55.4525,399.9872,399.9153,0.368601,0.4814225,0.538488,21.93471,11.76184,0,1.707407,0.01861446,0,0.01074689,0.0002429075,0.0002435054,0.0002556291,1.375813E-05,0.0003487368,0.0003453192,0.0002921134,0.002619096,0.002412661,0.0613861,0.05755591,0.0006201848,0.05875436,0,0.02134752,0.02807515,0.03981804,0.05396475,0.0006116326,0.060512,0,0,0,0.1298003,0.2489095,0.01840551,0.3486525,0.0001185107,0.0003966489,0.0005500485,0.002100164,0.002211503,1,0,-80.70082,"NAN",1,0,960,0.4642747,167.4529,14.9131,16.94121,0,0,27.51471,27.63656,1,1,20.28785,9.52312
"2023-03-14 10:18:34.9",95,10,0,100,436.9663,4.761874,0,29.99981,-0.9999896,73.47714,71.31957,0.02390607,21.07187,21.00549,2.194266,3.031703,2.217353,54.91767,42.70214,-19.99999,750.2349,12323,48.00416,43.22657,89.76632,86.14766,-26.99997,846.2255,12655,1,1,171.5221,47.29712,400.0116,400.0432,0.3617591,0.463776,0.5389695,21.9398,11.76231,0,0.2535515,0.002893859,0,0.009866775,0.0002516068,0.000169776,0.0002496715,1.222536E-05,0.0007184062,0.0005456447,0.0003022508,0.001689367,0.001837824,0.03722914,0.04023895,0.0005883799,0.05929741,0,0.004167033,0.003853826,0.008994607,0.008333963,0.0005636588,0.0522503,0,0,0,0.123652,0.09192205,0.02303176,0.3740932,9.95514E-05,0.0005296756,0.0005094935,0.002350109,0.002201838,1,0,-79.60843,"NAN",1,0,960,0.4873963,167.6135,14.91566,16.95094,0,0,27.57616,27.69258,1,1,20.34247,9.527881
"2023-03-14 10:24:54.9",114,11,0,100,398.0157,4.344594,0,30.00015,-0.9999819,73.47757,71.32001,0.02390354,21.13581,21.07211,2.19578,3.030687,2.219201,54.89201,42.73131,-19.99993,750.5834,12323,48.46957,43.82313,90.62351,87.29053,-26.99996,846.5585,12658,1,1,172.5562,57.23499,400.0269,400.0256,0.368165,0.4620485,0.5405479,21.95314,11.7625,0,0.1708751,0.001950151,0,0.0116663,0.0002771957,0.0002529654,0.0002588663,1.095491E-05,0.000779493,0.0006238281,0.0003335715,0.001488042,0.001497316,0.03225238,0.03170241,0.0005418662,0.05254535,0,0.002840583,0.002766992,0.006500942,0.00685453,0.0005872421,0.05869705,0,0,0,0.1211624,0.334309,0.04246057,0.03958792,0.000365597,6.229288E-05,0.0005984792,0.00167327,0.002268971,1,0,-76.94382,"NAN",1,0,960,0.4716094,167.3318,14.87054,16.95038,0,0,27.63192,27.74364,1,1,20.4234,9.521126
"2023-03-14 10:31:14.9",133,12,0,100,435.8691,4.750345,0,29.99888,-0.9999826,73.47807,71.32048,0.0239074,21.20711,21.14606,2.197705,3.026931,2.218968,54.81217,42.72588,-19.99994,751.0242,12323,48.00422,43.2473,89.75676,86.1919,-26.99992,846.9891,12665,1,1,171.0069,44.91985,399.9308,400.0492,0.3603694,0.4661564,0.5416619,21.97821,11.76295,0,0.1903871,0.002452362,0,0.01130421,0.0002413728,0.0002314368,0.0002262448,1.156134E-05,0.0004824283,0.0004801328,0.0002901227,0.001405025,0.001424338,0.02979943,0.02887361,0.0006030845,0.05785005,0,0.003184056,0.003315011,0.00673875,0.006898931,0.0004872898,0.04625935,0,0,0,0.1544893,0.7697659,0.0890884,0.116939,0.0007360956,0.0002073699,0.0005834104,0.00206397,0.002014656,1,0,-79.3661,"NAN",1,0,960,0.5066334,168.2053,14.8391,16.95386,0,0,27.69514,27.81516,1,1,20.50248,9.526614
"2023-03-14 10:37:34.9",152,13,0,100,396.0116,4.320775,0,29.99916,-0.9999785,73.47851,71.32096,0.02390664,21.28095,21.22228,2.200017,3.025161,2.21979,54.77267,42.73331,-19.99994,751.5436,12323,48.48026,43.86138,90.62506,87.37657,-26.99988,847.5187,12661,1,1,172.1928,40.01377,399.9379,400.0128,0.3567107,0.464727,0.5421466,22.01019,11.76231,0,0.1709539,0.00167799,0,0.009859181,0.0002357527,0.0001927115,0.0002504749,1.141774E-05,0.00066974,0.0006019556,0.0002832602,0.002679143,0.002541199,0.07099222,0.06482339,0.0005481972,0.05379073,0,0.003107842,0.003431658,0.007428138,0.00784038,0.0005698691,0.05549591,0,0,0,0.3316194,0.5675258,0.06997323,0.02993793,0.000662937,6.510799E-05,0.0005061324,0.001946044,0.002313458,1,0,-81.0153,"NAN",1,0,960,0.4841279,167.4356,14.76217,16.94842,0,0,27.78184,27.87376,1,1,20.5838,9.521123
"2023-03-14 10:43:54.9",171,20,0,100,1.482544,0.01709274,0,29.99936,-0.9999799,73.47895,71.32137,0.02390715,21.35312,21.29678,2.202622,3.022926,2.222898,54.72212,42.79689,-19.99992,752.142,12323,53.52724,50.46455,99.90451,100.0164,-26.9999,848.1164,12667,1,1,169.5532,101.5912,399.9996,400.1299,0.3864695,0.4582255,0.5433759,22.05243,11.76226,0,0.5654268,0.006097677,0,0.01141172,0.0002292578,0.0002182046,0.0002614214,1.246605E-05,0.000653946,0.0006948015,0.000275123,0.001446526,0.001193212,0.02919013,0.02459056,0.0005597848,0.05350784,0,0.008074276,0.009966747,0.01483546,0.01960871,0.0005948854,0.05629207,0,0,0,0.189884,0.1352353,0.02345477,0.2671514,5.255121E-05,0.0003039431,0.0005838483,0.001254872,0.002281184,1,0,-79.45503,"NAN",1,0,960,0.4725891,166.9306,14.65078,16.92354,0,0,27.859,27.95863,1,1,20.66302,9.524359
"2023-03-14 10:50:14.9",190,21,0,100,106.7727,1.173244,0,29.9996,-0.9999771,73.47952,71.3219,0.02390692,21.4254,21.37126,2.205534,3.020598,2.223743,54.67778,42.80458,-19.99991,752.8161,12323,52.12593,48.60751,97.32684,96.47377,-26.9999,848.7718,12673,1,1,169.4832,111.0382,400.0011,400.0372,0.3908969,0.4565948,0.5434916,22.10023,11.76147,0,0.0904763,0.0009362196,0,0.01228433,0.0002448327,0.0001861074,0.0002194408,1.212207E-05,0.0007045013,0.0006521036,0.0002960393,0.001269999,0.001304123,0.0271684,0.02762889,0.0005643161,0.05545271,0,0.002318292,0.002666779,0.005347997,0.006867854,0.0005258415,0.05239519,0,0,0,0.2186574,0.1270282,0.01899248,0.04705746,4.28017E-05,8.085317E-05,0.0006295737,0.002002036,0.002167875,1,0,-77.48749,"NAN",1,0,960,0.485722,166.5144,14.52648,16.88703,0,0,27.9333,28.0547,1,1,20.74435,9.526915
"2023-03-14 10:56:34.9",209,23,0,100,496.2401,5.455232,0,29.99924,-0.9999736,73.47995,71.32232,0.02391157,21.49952,21.44686,2.208705,3.015624,2.221997,54.59269,42.76353,-19.99992,753.5656,12323,47.24058,42.28403,88.34707,84.35995,-26.99994,849.4827,12666,1,1,169.461,147.0732,399.9998,400.0643,0.4025689,0.4537114,0.5441909,22.15349,11.76017,0,0.3207082,0.003770727,0,0.01032844,0.0002440621,0.0002388155,0.000259784,1.097084E-05,0.0006187618,0.0006469946,0.0002916534,0.001471324,0.001554429,0.03031103,0.03225099,0.0005717367,0.05680313,0,0.003753839,0.003549996,0.007958305,0.007807449,0.0005620652,0.05425284,0,0,0,0.2352843,0.1505146,0.02006602,0.1656006,4.541588E-05,0.0001828396,0.0005306379,0.001996467,0.002158605,1,0,-77.11438,"NAN",1,0,960,0.4750145,166.4057,14.35165,16.88013,0,0,28.05066,28.11233,1,1,20.85238,9.528926
"2023-03-14 11:02:54.9",228,26,4,100,1518.475,16.72412,0,29.99954,-0.9999624,73.48048,71.32289,0.02390493,21.57247,21.52118,2.212133,3.009924,2.218602,54.50116,42.69246,-19.99994,754.3708,12323,36.45848,29.27991,68.46328,59.21237,-26.99996,850.2419,12627,1,1,170.0321,1.307946,401.5074,399.738,0.2977443,0.4683727,0.545058,22.21307,11.76116,0,1.077195,0.01220763,0,0.01068348,0.0002352467,0.0002497199,0.0002375188,1.085277E-05,0.0004811271,0.0005967576,0.0002846475,0.001227991,0.001216979,0.02469097,0.02618125,0.0006024011,0.05876769,0,0.009264424,0.0102771,0.01658662,0.01953615,0.0005443174,0.05471553,0,0,0,0.844145,0.7407768,0.9784442,0.4174328,0.0127568,0.0004813362,0.0005552655,0.001856065,0.002190605,1,0,-78.73805,"NAN",1,0,960,0.4776221,165.9427,14.1996,16.87449,0,0,28.14371,28.20771,1,1,20.93399,9.529732
"2023-03-14 11:09:14.9",247,2,0,100,297.2091,3.279786,0,30.00001,-0.9999534,73.48113,71.32349,0.02390923,21.64538,21.59574,2.215695,3.011098,2.223786,54.51357,42.78608,-19.99992,755.2338,12323,49.66966,45.42713,92.82732,90.36781,-26.99985,851.1242,12660,1,1,163.8669,54.7795,399.9844,399.9174,0.3673412,0.4814735,0.546244,22.27453,11.76335,0,1.981614,0.02191041,0,0.0094315,0.0002984091,0.0002380014,0.0001840983,1.083029E-05,0.0004353719,0.0005450011,0.0003597881,0.003835749,0.003804209,0.08687901,0.08817977,0.0006292273,0.06193234,0,0.02458928,0.03226525,0.04587804,0.06218671,0.0005784825,0.05534434,0,0,0,0.1179365,0.2497204,0.02128947,0.3500074,0.000126415,0.0004091979,0.0004887833,0.002032499,0.002159644,1,0,-77.34861,"NAN",1,0,960,0.4739571,166.108,14.02834,16.88764,0,0,28.23596,28.29794,1,1,21.01681,9.531057
"2023-03-14 11:15:34.9",266,10,0,100,429.4008,4.681824,0,29.99878,-0.9999653,73.48177,71.32399,0.02391271,21.71854,21.66896,2.219527,3.008506,2.224001,54.47754,42.77674,-19.99988,756.15,12323,48.01543,43.3609,89.80286,86.41001,-26.99992,852.0187,12661,1,1,171.0572,48.38496,400.0161,400.0433,0.3625781,0.4650949,0.5459974,22.34017,11.76351,0,0.2509843,0.002823081,0,0.01027565,0.0002818778,0.0002728075,0.0002275061,1.054332E-05,0.0005452048,0.0006389949,0.0003404814,0.001278899,0.001264362,0.02651797,0.02782617,0.0005965179,0.06164034,0,0.00420095,0.003912841,0.008636854,0.008790861,0.0005618491,0.05766957,0,0,0,0.1146419,0.1069347,0.03012362,0.3516304,0.0001214966,0.0004877234,0.0005365155,0.002448606,0.002174499,1,0,-78.82126,"NAN",1,0,960,0.4821765,166.5597,13.89087,16.89901,0,0,28.33076,28.39295,1,1,21.12377,9.54165
"2023-03-14 11:21:54.9",285,11,0,100,396.4259,4.328903,0,30.00079,-0.9999618,73.48278,71.32504,0.02391394,21.7896,21.74008,2.223587,3.006499,2.224611,54.42669,42.78633,-19.99988,757.1185,12323,48.41507,43.86001,90.53216,87.36461,-26.99983,852.9702,12667,1,1,171.9471,75.22888,400.0405,400.0441,0.3775338,0.4614748,0.5467989,22.40668,11.76354,0,0.1564452,0.002127699,0,0.01043502,0.0002664505,0.0001872238,0.0002785492,1.250988E-05,0.0005725778,0.000574725,0.0003216726,0.001275232,0.00151225,0.02543258,0.03206222,0.0006227053,0.06188766,0,0.003028975,0.00337211,0.006218621,0.007241508,0.000608216,0.06211648,0,0,0,0.1373028,0.408482,0.06855217,0.08660948,0.0003348684,9.222285E-05,0.0005406444,0.002262206,0.002229684,1,0,-78.84922,"NAN",1,0,960,0.4663954,166.1496,13.76892,16.90501,0,0,28.41869,28.47944,1,1,21.25065,9.540101
"2023-03-14 11:28:14.9",304,12,0,100,430.6907,4.697257,0,29.99921,-0.9999681,73.48329,71.32553,0.02391499,21.85762,21.80747,2.227756,3.004921,2.225588,54.37638,42.8047,-19.99994,758.1179,12323,47.99746,43.34272,89.74773,86.37114,-26.99987,853.942,12655,1,1,170.5357,47.32008,399.9073,399.9919,0.3632872,0.465511,0.5471471,22.47907,11.76466,0,0.1857669,0.002142281,0,0.009451443,0.0002261015,0.0001681034,0.0002048827,1.211325E-05,0.0005117679,0.0006305913,0.000273027,0.001448554,0.001229741,0.02951553,0.02437436,0.000572279,0.05564823,0,0.002805754,0.003000309,0.006264559,0.006305495,0.0005742804,0.05314619,0,0,0,0.1702415,1.201797,0.1191566,0.07653535,0.001122046,0.0001053227,0.0004832845,0.002180448,0.002075928,1,0,-77.52568,"NAN",1,0,960,0.4850832,165.4289,13.64723,16.88397,0,0,28.53999,28.57327,1,1,21.34011,9.536284
"2023-03-14 11:34:34.9",323,13,0,100,394.8425,4.31232,0,30.00011,-0.9999646,73.4842,71.32646,0.02391558,21.92226,21.87248,2.232068,3.002913,2.227338,54.3146,42.8404,-19.99989,759.1585,12323,48.43497,43.8949,90.53712,87.43367,-26.99991,854.9495,12660,1,1,171.7665,43.06557,399.9425,400.0132,0.3598828,0.4662477,0.5476955,22.54713,11.76435,0,0.1851342,0.001868491,0,0.009413364,0.0002418449,0.0002254624,0.0002733461,1.14732E-05,0.0007241475,0.0005149853,0.000292486,0.001393269,0.00126771,0.02627497,0.02602738,0.0005662346,0.05715852,0,0.002487362,0.002696835,0.005856216,0.006437051,0.0005512872,0.05407962,0,0,0,0.3608361,0.5371491,0.0666286,0.02961498,0.0006088721,7.362562E-05,0.00048296,0.002508771,0.002178902,1,0,-81.21794,"NAN",1,0,960,0.5015616,165.4078,13.50742,16.86581,0,0,28.63285,28.66841,1,1,21.42425,9.540709
"2023-03-14 11:40:54.9",342,20,0,100,1.816276,0.01791576,0,29.99946,-0.9999611,73.48476,71.32692,0.02391824,21.9855,21.93591,2.236476,3.001844,2.230973,54.27501,42.91063,-19.99988,760.2219,12323,53.52464,50.46718,99.88863,100.0109,-26.99986,855.9878,12666.6,1,1,169.0883,100.9809,400.0008,400.09,0.3886376,0.4613391,0.5482331,22.61319,11.76435,0,0.5674002,0.006328976,0,0.009988102,0.0002617854,0.0001702001,0.0002185869,1.350043E-05,0.0005151527,0.0004984214,0.0003162464,0.002601813,0.002690607,0.04849513,0.05286616,0.000560214,0.05392173,0,0.007742817,0.01053603,0.0151743,0.02125734,0.0006075145,0.05611791,1.356466,0,0,0.2084894,0.1210821,0.02218762,0.1684661,5.358058E-05,0.000212672,0.0005111347,0.001913995,0.002306104,1,0,-80.98685,"NAN",1,0,960,0.4729502,165.3595,13.36365,16.87276,0,0,28.73174,28.7528,1,1,21.50558,9.543308
"2023-03-14 11:47:14.9",361,21,0,100,96.12458,1.053769,0,30.00088,-0.9999694,73.48581,71.32777,0.02391878,22.04502,21.99525,2.240756,2.998659,2.230285,54.20887,42.89544,-19.99989,761.3019,12323,52.25254,48.8055,97.55,96.83849,-26.99989,857.0362,12667,1,1,169.081,110.7496,400.0019,400.0275,0.3927213,0.459987,0.5485496,22.67962,11.76305,0,0.1040407,0.0009670003,0,0.01089154,0.0002301157,0.0002247959,0.0002384573,1.149727E-05,0.0006401581,0.0005242192,0.0002792926,0.001230457,0.001261777,0.02390596,0.02586257,0.000615835,0.05984927,0,0.003218679,0.00333173,0.006767961,0.006873365,0.0005805396,0.05545977,0,0,0,0.1950374,0.1249991,0.02056159,0.04966335,4.481573E-05,7.086691E-05,0.0005555011,0.002132425,0.00221584,1,0,-80.15891,"NAN",1,0,960,0.4762975,165.1876,13.27875,16.86999,0,0,28.79325,28.82347,1,1,21.58692,9.540488
"2023-03-14 11:53:34.9",380,23,0,100,444.9387,4.891484,0,29.99988,-0.9999591,73.48698,71.3288,0.02392124,22.0967,22.04577,2.245265,2.995605,2.229387,54.15471,42.86893,-19.99987,762.3896,12323,47.80126,43.09448,89.36756,85.89467,-26.99991,858.0851,12665,1,1,169.077,146.7415,400.0012,400.0582,0.4044624,0.4580041,0.548706,22.74248,11.76225,0,0.2332929,0.002586409,0,0.008716289,0.0002512981,0.0002080196,0.0002176852,1.255897E-05,0.0004298285,0.0003669577,0.0003024964,0.001382399,0.001401171,0.02821768,0.02945385,0.0006111846,0.06223634,0,0.00415218,0.003724119,0.008414812,0.008120632,0.0006414786,0.06315057,0,0,0,0.2301763,0.1365158,0.0228947,0.1470838,5.214968E-05,0.000159053,0.0004522578,0.002285286,0.002115999,1,0,-79.52702,"NAN",1,0,960,0.4692217,164.9047,13.2015,16.86283,0,0,28.88635,28.91494,1,1,21.67051,9.540544
"2023-03-14 11:59:54.9",399,26,4,100,1367.49,15.06043,0,30.00008,-0.9999694,73.48769,71.32946,0.02391635,22.14159,22.08906,2.249704,2.989808,2.224372,54.05863,42.76678,-19.99989,763.462,12323,37.74503,30.95641,70.82959,62.45004,-26.99997,859.1005,12638.42,1,1,169.7366,1.273906,401.519,399.8808,0.2990766,0.4720582,0.5486146,22.80196,11.76318,0,1.055327,0.01139698,0,0.01346708,0.000221788,0.0001702701,0.0002051262,1.2253E-05,0.000446288,0.0003781843,0.0002677139,0.00169505,0.001435756,0.03531452,0.03053864,0.0005266974,0.05467722,0,0.009747796,0.01029327,0.01730297,0.02001274,0.000641479,0.06169284,1.750314,0,0,0.8410141,0.7330198,0.9528474,0.4405351,0.01289741,0.0004974623,0.0006958751,0.002214474,0.002057501,1,0,-78.25148,"NAN",1,0,960,0.4573247,164.5304,13.13578,16.85897,0,0,28.96392,28.9788,1,1,21.73055,9.53775
"2023-03-14 12:06:14.9",418,2,0,100,296.6533,3.273335,0,29.99986,-0.9999548,73.48816,71.32988,0.02392216,22.18466,22.13087,2.254119,2.991701,2.229635,54.08292,42.86498,-19.99986,764.5305,12323,49.64703,45.45433,92.76987,90.39326,-26.99983,860.1769,12661,1,1,163.6561,54.146,399.9841,399.9162,0.3688121,0.4848496,0.549651,22.85416,11.76525,0,1.733993,0.01928084,0,0.01102944,0.0002571914,0.0002241165,0.0002187018,1.15671E-05,0.0002458255,0.0003293098,0.0003107947,0.001670812,0.00140309,0.03203364,0.02885993,0.0006236073,0.06425341,0,0.02255196,0.02836871,0.04071512,0.0531757,0.00052482,0.05091706,0,0,0,0.1047852,0.2305311,0.02290017,0.3358768,0.000125251,0.0003847227,0.0005644945,0.002106154,0.002464957,1,0,-77.40448,"NAN",1,0,960,0.470301,164.3444,13.051,16.84997,0,0,29.0443,29.04446,1,1,21.80832,9.537584
"2023-03-14 12:12:34.9",437,10,0,100,427.1397,4.656824,0,30.00027,-0.9999722,73.48895,71.33074,0.02392674,22.22354,22.16712,2.258453,2.990295,2.228978,54.07195,42.83921,-19.99986,765.5881,12323,48.00655,43.42288,89.76898,86.4949,-26.99989,861.2051,12662,1,1,170.6662,49.86451,400.0219,400.0407,0.3651313,0.4680271,0.5491415,22.89784,11.76485,0,0.333755,0.003223357,0,0.009904654,0.0002503281,0.0002655448,0.0003080989,1.297486E-05,0.0003034239,0.0003394196,0.0003025544,0.00260817,0.002595536,0.03546059,0.03995633,0.0005773157,0.05772609,0,0.005229424,0.005654491,0.007369603,0.009369038,0.0005631733,0.05417913,0,0,0,0.122544,0.1503535,0.03558059,0.345764,0.0001816632,0.0004842285,0.0005079372,0.001596853,0.002276208,1,0,-80.74443,"NAN",1,0,960,0.4700865,164.3975,12.94914,16.85034,0,0,29.0938,29.07617,1,1,21.86254,9.537998
"2023-03-14 12:18:54.9",456,11,0,100,395.9374,4.323048,0,29.99903,-0.9999534,73.48945,71.33121,0.02393041,22.26164,22.20449,2.26265,2.990518,2.230113,54.06947,42.85513,-19.99989,766.6247,12323,48.39308,43.89641,90.48294,87.4017,-26.99988,862.2177,12659,1,1,171.7551,76.43582,400.0356,400.0441,0.379535,0.4640695,0.5494068,22.94363,11.76486,0,0.2678521,0.003072074,0,0.01041278,0.0002637804,0.0002438269,0.0002356031,1.218515E-05,0.0007073518,0.0004316756,0.0003160304,0.002443317,0.002102847,0.04859653,0.04416982,0.0005581826,0.05669155,0,0.003971898,0.003253506,0.006691738,0.006411112,0.0005192542,0.0508825,0,0,0,0.1292958,0.39906,0.0702346,0.08816372,0.0003239079,8.89904E-05,0.0005385856,0.0021591,0.002289972,1,0,-79.84025,"NAN",1,0,960,0.4626327,164.4952,12.86161,16.86662,0,0,29.1567,29.13971,1,1,21.91902,9.537308
"2023-03-14 12:25:14.9",475,12,0,100,436.1348,4.757681,0,29.99891,-0.9999624,73.49017,71.3319,0.02393332,22.29936,22.24095,2.266867,2.989511,2.23063,54.04227,42.86003,-19.99992,767.6372,12323,47.9005,43.28674,89.56519,86.2257,-26.99991,863.2195,12666,1,1,170.26,45.47323,399.9107,399.9869,0.3627566,0.4682603,0.5494024,22.98364,11.76532,0,0.5462829,0.005266409,0,0.011087,0.0002427111,0.0001768913,0.0002147114,1.202877E-05,0.0005460843,0.0003785425,0.0002952657,0.003077944,0.002880443,0.05002697,0.04997727,0.0005240053,0.0518469,0,0.003171626,0.003806032,0.005777402,0.006335687,0.0005919365,0.05709614,0,0,0,0.1760652,1.167483,0.1200499,0.07282738,0.001096318,8.545613E-05,0.0005611197,0.002089757,0.002082972,1,0,-79.57353,"NAN",1,0,960,0.4480045,164.405,12.82282,16.86573,0,0,29.20334,29.17148,1,1,21.97325,9.541871
"2023-03-14 12:31:34.9",494,13,0,100,394.0022,4.305701,0,29.99866,-0.9999577,73.49085,71.33269,0.02393338,22.34479,22.28996,2.27119,2.988788,2.231551,54.01059,42.87498,-19.99986,768.6664,12323,48.42271,43.93244,90.50954,87.46081,-26.99986,864.2375,12667,1,1,171.6175,57.06814,400.0138,400.0309,0.3704399,0.4666079,0.550469,23.02862,11.76507,0,0.1995431,0.002119175,0,0.009433202,0.0002310621,0.0002112512,0.0002686621,1.289691E-05,0.0006753089,0.0004351568,0.000278537,0.001584722,0.001428348,0.02655642,0.02623866,0.0005215984,0.05148038,0,0.003179522,0.003427677,0.006294023,0.007182979,0.0005473851,0.05430838,0,0,0,0.4673835,0.3751848,0.07663374,0.04717478,0.0004593651,6.894668E-05,0.0004812411,0.002264831,0.002369009,1,0,-78.5368,"NAN",1,0,960,0.4613582,163.6529,12.77887,16.83591,0,0,29.26706,29.23514,1,1,22.02973,9.539824
"2023-03-14 12:37:54.9",513,20,0,100,1.353583,0.01663862,0,30.00021,-0.999957,73.49128,71.33307,0.02393487,22.39886,22.34746,2.275612,2.988111,2.234352,53.98378,42.93229,-19.99988,769.7299,12323,53.54993,50.48734,99.92454,100.0017,-26.99985,865.2873,12671,1,1,168.9226,100.7037,400.0008,400.0886,0.3896804,0.4623189,0.5508339,23.07825,11.76541,0,0.5088041,0.005444119,0,0.01104953,0.0002284154,0.0002403765,0.0002165099,1.258753E-05,0.0003396789,0.0004498253,0.0002764696,0.001574909,0.001360992,0.02678384,0.02429322,0.000517188,0.05115791,0,0.00775422,0.009623874,0.01411293,0.01892988,0.0005244721,0.04936535,0,0,0,0.1737997,0.114145,0.02165334,0.1582112,5.015752E-05,0.0002023921,0.0005649137,0.002084509,0.002257996,1,0,-77.68159,"NAN",1,0,960,0.4625184,163.8876,12.71918,16.83062,0,0,29.30087,29.29879,1,1,22.08395,9.54389
"2023-03-14 12:44:14.9",532,21,0,100,89.55698,0.9869384,0,29.99948,-0.9999563,73.4922,71.33402,0.02393411,22.45354,22.40379,2.280111,2.987388,2.236125,53.95886,42.95974,-19.9999,770.8102,12323,52.35172,48.93504,97.71207,97.04446,-26.99987,866.343,12673,1,1,168.8452,110.3544,400.0011,400.0305,0.3938583,0.461001,0.5509948,23.13117,11.76439,0,0.08748429,0.0009470088,0,0.01192108,0.0002609718,0.0002208214,0.0002750987,1.228245E-05,0.0004059828,0.0005052326,0.0003146645,0.001242425,0.001479175,0.02305981,0.02875577,0.0006112526,0.05895264,0,0.002765191,0.002534916,0.006144467,0.005291464,0.0005073044,0.04986298,0,0,0,0.1707617,0.09328971,0.01988506,0.05190594,4.961982E-05,7.515656E-05,0.0006107465,0.002927887,0.002325516,1,0,-80.05997,"NAN",1,0,960,0.4733193,163.9658,12.62845,16.82898,0,0,29.38398,29.35039,1,1,22.14043,9.54671
"2023-03-14 12:50:34.9",551,23,0,100,415.838,4.576648,0,29.99931,-0.9999583,73.49282,71.33472,0.02393322,22.5055,22.45886,2.284626,2.984619,2.235277,53.90781,42.93679,-19.99987,771.8999,12323,48.13768,43.5735,89.95512,86.77815,-26.99987,867.3871,12666,1,1,168.808,146.5322,400.0018,400.0531,0.4056725,0.4568188,0.5509165,23.18102,11.7629,0,0.1889574,0.001941797,0,0.01111006,0.0002305735,0.0001886864,0.0002393922,1.236835E-05,0.0004437079,0.0004396844,0.0002803366,0.001396677,0.001342694,0.02530012,0.02437956,0.0004828227,0.04597628,0,0.002917192,0.003524596,0.006459434,0.006853167,0.000517247,0.0521566,0,0,0,0.1926016,0.1240472,0.02184673,0.1434495,5.383093E-05,0.0001570367,0.0005699206,0.001763218,0.002348027,1,0,-79.60619,"NAN",1,0,960,0.4543622,164.0723,12.53343,16.8422,0,0,29.42787,29.39759,1,1,22.19465,9.548591
"2023-03-14 12:56:54.9",570,26,4,100,1276.38,14.06144,0,30.00029,-0.9999618,73.49333,71.33537,0.02393328,22.55951,22.51329,2.288997,2.979808,2.231921,53.83646,42.86504,-19.99991,772.9924,12323,38.54455,32.03077,72.28201,64.51875,-26.99991,868.4305,12636,1,1,169.4226,1.299734,401.5032,399.8644,0.3009056,0.4710384,0.5510374,23.23434,11.76401,0,0.9184055,0.01052584,0,0.01001868,0.000255933,0.0002879386,0.0003387659,1.346924E-05,0.0003468478,0.0004291139,0.0003085335,0.001620331,0.001830528,0.02588672,0.03355529,0.0005170791,0.05276081,0,0.008885962,0.01024888,0.01590541,0.01983812,0.000522068,0.05026187,0,0,0,0.8726673,0.7381336,0.9825163,0.4509624,0.01271406,0.0004934549,0.0005134802,0.002152824,0.002368434,1,0,-77.56015,"NAN",1,0,960,0.4644724,164.135,12.47272,16.85199,0,0,29.49199,29.45908,1,1,22.25113,9.543331
"2023-03-14 13:03:14.9",589,2,0,100,295.8275,3.266783,0,29.99974,-0.9999563,73.49417,71.33633,0.02393524,22.61061,22.56605,2.293575,2.982694,2.237624,53.88292,42.96579,-19.99988,774.1089,12323,49.64598,45.5029,92.72952,90.45577,-26.99982,869.5472,12656,1,1,163.3183,53.8779,399.985,399.9063,0.3700484,0.4846945,0.5519288,23.28492,11.76589,0,1.599918,0.01756462,0,0.01173717,0.0002328734,0.0002285446,0.0002653612,1.270838E-05,0.0002646963,0.0003905146,0.0002831932,0.001668129,0.001226823,0.03156981,0.02389404,0.0005255933,0.05019695,0,0.02072097,0.0257745,0.03770885,0.0493868,0.0004770044,0.04423871,0,0,0,0.1077652,0.2207552,0.02313824,0.3473988,0.0001093599,0.0003833669,0.0006019751,0.002107683,0.002155229,1,0,-79.08731,"NAN",1,0,960,0.4730293,164.1292,12.41063,16.84963,0,0,29.55527,29.52313,1,1,22.30761,9.542065
"2023-03-14 13:09:34.9",608,10,0,100,429.3068,4.681099,0,29.99978,-0.9999583,73.4947,71.33708,0.02393787,22.66021,22.61624,2.298133,2.98101,2.237529,53.87024,42.9467,-19.99989,775.2123,12323,47.94968,43.42995,89.62769,86.48712,-26.99988,870.6195,12668,1,1,170.6335,47.13742,400.0149,400.1524,0.3654047,0.4699579,0.5517048,23.33578,11.76598,0,0.3844347,0.00410304,0,0.01155396,0.0002547998,0.0002362021,0.0002888604,1.21721E-05,0.0003290008,0.0005259136,0.0003080539,0.001871522,0.001611717,0.03393383,0.03125193,0.0005309986,0.04958482,0,0.003315694,0.003788531,0.00724512,0.008201299,0.0004932072,0.04842915,0,0,0,0.1012374,0.09503263,0.03052673,0.6249814,0.0001035377,0.0006987548,0.0005939846,0.001783951,0.002396359,1,0,-77.31755,"NAN",1,0,960,0.4610977,164.0079,12.35378,16.85297,0,0,29.61966,29.55832,1,1,22.3641,9.544193
"2023-03-14 13:15:54.9",627,11,0,100,395.2306,4.313326,0,30.00018,-0.9999542,73.49558,71.33804,0.02394068,22.70755,22.66354,2.302684,2.979482,2.237477,53.83802,42.94107,-19.99986,776.3234,12323,48.37262,43.94693,90.40085,87.47143,-26.9999,871.6884,12664,1,1,171.507,69.89817,400.0329,400.364,0.3783098,0.4673746,0.5525472,23.38242,11.76594,0,0.2015807,0.001601081,0,0.009757386,0.0002585533,0.0002502443,0.0002697471,1.259549E-05,0.0004471188,0.000418531,0.0003128915,0.00142302,0.001495105,0.02688465,0.0291814,0.0005314741,0.05065182,0,0.003215134,0.002831415,0.006938359,0.005922575,0.0005410536,0.0539071,0,0,0,0.1093479,0.3999646,0.06485067,0.5024016,0.0003250293,0.001322002,0.0005000746,0.002044455,0.002262902,1,0,-78.54963,"NAN",1,0,960,0.4536408,163.5947,12.29305,16.8395,0,0,29.68417,29.61984,1,1,22.41282,9.542612
"2023-03-14 13:22:14.9",646,12,0,100,435.2871,4.743905,0,30.0004,-0.9999653,73.49654,71.33907,0.02394214,22.75295,22.70783,2.3072,2.979823,2.239606,53.82774,42.97773,-19.99987,777.431,12323,47.88203,43.34702,89.48336,86.31519,-26.99992,872.7673,12665,1,1,170.2097,43.21449,399.9143,400.1908,0.3631821,0.4700191,0.5522426,23.42907,11.76651,0,0.1642998,0.001892133,0,0.01099655,0.0002598158,0.0001235541,0.0002177066,1.468007E-05,0.0003474415,0.0004011708,0.0003146388,0.001658045,0.001443719,0.03103781,0.028823,0.0005773511,0.05540746,0,0.00285433,0.00292417,0.006229167,0.00647687,0.0005412257,0.0539069,0,0,0,0.1804773,1.107677,0.117333,0.2951164,0.001077104,0.0008169669,0.0005645875,0.002158159,0.002373483,1,0,-79.50146,"NAN",1,0,960,0.419375,162.4488,12.24047,16.81429,0,0,29.74352,29.68162,1,1,22.44865,9.540258
"2023-03-14 13:28:34.9",665,13,0,100,393.9932,4.300115,0,30.00018,-0.9999583,73.49717,71.33968,0.02393907,22.79807,22.75079,2.311491,2.978866,2.240816,53.80219,42.99751,-19.99985,778.5381,12323,48.39308,43.97528,90.41927,87.52151,-26.99991,873.843,12666,1,1,171.4472,54.40379,400.0077,400.024,0.370462,0.4668815,0.5523448,23.47444,11.76636,0,0.2217936,0.001822989,0,0.01206351,0.0002646327,0.0001266241,0.0002464535,1.212396E-05,0.0005112057,0.0003902075,0.0003191544,0.001404071,0.001447302,0.02894909,0.02954583,0.000524241,0.05157613,0,0.002621359,0.003318942,0.006097459,0.007827124,0.0004478944,0.04583042,0,0,0,0.4124873,0.3563057,0.0822301,0.04522886,0.000434936,6.534446E-05,0.0006177664,0.002446197,0.002105498,1,0,-77.9968,"NAN",1,0,960,0.4544348,163.1848,12.17089,16.814,0,0,29.78113,29.71646,1,1,22.50191,9.539685
"2023-03-14 13:34:54.9",684,20,0,100,1.710114,0.01464866,0,29.99988,-0.9999681,73.49788,71.34038,0.02394397,22.83994,22.79539,2.315923,2.980541,2.244906,53.81589,43.07412,-19.99986,779.6293,12323,53.55783,50.51072,99.90459,100.0199,-26.99987,874.9205,12666,1,1,168.7549,100.3574,400.0016,400.1024,0.3910867,0.4638895,0.5524172,23.5179,11.76659,0,0.5549712,0.006123265,0,0.01003016,0.000239958,0.0002404543,0.0002548041,1.28408E-05,0.0002797212,0.0003519393,0.0002905637,0.001692678,0.001933001,0.03599689,0.03920947,0.0005505949,0.05237285,0,0.008424832,0.01081745,0.01532771,0.02159113,0.0005343947,0.04928006,0,0,0,0.188758,0.1140178,0.02308193,0.1657136,5.273019E-05,0.0002293544,0.0005156869,0.002304437,0.002281779,1,0,-77.74785,"NAN",1,0,960,0.4515023,162.8886,12.13248,16.81248,0,0,29.81448,29.74956,1,1,22.54493,9.53257
"2023-03-14 13:41:14.9",703,21,0,100,84.77388,0.9269513,0,30.00043,-0.9999555,73.49862,71.34094,0.02394147,22.88098,22.83636,2.320333,2.97898,2.244645,53.77077,43.06611,-19.99986,780.7046,12323,52.42379,49.05285,97.81046,97.24226,-26.9999,875.9694,12667,1,1,168.7322,110.0371,399.9995,400.2151,0.3952231,0.4641765,0.5533595,23.55869,11.76544,0,0.09500623,0.0008954232,0,0.01151114,0.0002584416,0.0002548996,0.0002621807,1.223842E-05,0.0004288209,0.0003046892,0.0003117409,0.003776697,0.004614811,0.08488274,0.1001709,0.0005828683,0.05600715,0,0.003750584,0.004164083,0.008697349,0.009225215,0.00053156,0.04937261,0,0,0,0.1686604,0.1115872,0.02376734,0.2551563,5.511534E-05,0.001042623,0.0005895985,0.002206688,0.002379383,1,0,-77.9034,"NAN",1,0,960,0.4485402,162.8666,12.10924,16.80608,0,0,29.87836,29.81351,1,1,22.58776,9.535847
"2023-03-14 13:47:34.9",722,23,0,100,393.9764,4.328731,0,30.00117,-0.9999624,73.49937,71.34159,0.02394406,22.91949,22.87596,2.324676,2.975303,2.243356,53.69209,43.04337,-19.99988,781.7688,12323,48.38951,43.95201,90.39097,87.48058,-26.9999,876.9933,12665,1,1,168.708,145.9013,400.0034,400.0512,0.4068645,0.4596442,0.5530178,23.60328,11.76482,0,0.2377512,0.002720913,0,0.01041231,0.0002592209,0.0002353024,0.000252784,1.153185E-05,0.0003488312,0.0005017131,0.0003126415,0.003166027,0.003060514,0.06411645,0.06499998,0.0005249433,0.05258267,0,0.005080007,0.005470324,0.01165479,0.01262789,0.0005927526,0.05768677,0,0,0,0.1859591,0.1106648,0.01898486,0.1359248,5.476416E-05,0.0001395261,0.0005301186,0.002101206,0.002201074,1,0,-78.6705,"NAN",1,0,960,0.4370359,162.7568,12.07262,16.80589,0,0,29.94189,29.84575,1,1,22.67136,9.541096
"2023-03-14 13:53:54.9",741,26,4,100,1216.009,13.39262,0,29.99988,-0.9999646,73.50053,71.34269,0.02394115,22.95695,22.91595,2.329026,2.971064,2.240564,53.61509,42.9809,-19.99989,782.8423,12323,39.07757,32.77943,73.23771,65.94695,-26.99992,878.011,12643.38,1,1,169.4723,0.9385766,401.6635,399.869,0.2961163,0.4752074,0.5532343,23.64032,11.76534,0,1.060286,0.01180451,0,0.01116987,0.0002531384,0.0002372668,0.0002410133,1.38735E-05,0.0002849369,0.0004560272,0.0003056891,0.004281732,0.004220557,0.08735742,0.09124658,0.0005048397,0.04882276,0,0.01079386,0.009783538,0.02220761,0.02024447,0.0005035455,0.04996861,3.315961,0,0,0.7183208,0.6169972,0.6996343,0.435354,0.01450386,0.0004722221,0.0005762249,0.002240266,0.002191236,1,0,-79.57764,"NAN",1,0,960,0.4340088,162.5143,12.02745,16.81461,0,0,29.97574,29.87836,1,1,22.69847,9.538165
"2023-03-14 14:00:14.9",760,2,0,100,295.9057,3.266669,0,30,-0.9999639,73.50134,71.34341,0.02394352,22.99364,22.95167,2.33329,2.97283,2.245807,53.63836,43.0775,-19.9999,783.8703,12323,49.63932,45.52893,92.68653,90.47727,-26.99981,879.0617,12667,1,1,163.1808,53.27293,399.9883,399.9271,0.3710623,0.4876453,0.5539105,23.6786,11.76766,0,1.498471,0.01666397,0,0.01301972,0.0002411351,0.0002505907,0.0002690586,1.425614E-05,0.0002850599,0.0002966172,0.0002914441,0.003356946,0.003426092,0.06944607,0.07321239,0.000577294,0.05713847,0,0.0198969,0.0259753,0.03660496,0.05025661,0.0005323591,0.05691454,0,0,0,0.1173271,0.2153427,0.01908567,0.3293923,8.802393E-05,0.000386505,0.000666972,0.001692397,0.002112187,1,0,-77.28865,"NAN",1,0,960,0.457762,162.8772,11.9981,16.81436,0,0,30.00862,29.94303,1,1,22.72892,9.538107
"2023-03-14 14:06:34.9",779,10,0,100,428.5617,4.675034,0,30.00028,-0.9999618,73.50205,71.34409,0.02394109,23.02474,22.98417,2.337322,2.97166,2.243125,53.63369,43.01251,-19.99988,784.8873,12323,47.93634,43.46444,89.57455,86.52885,-26.99989,880.0428,12668,1,1,170.2901,47.20465,400.0125,400.0471,0.3661168,0.4706983,0.5533634,23.71533,11.76773,0,0.3119159,0.003331165,0,0.01149695,0.0002355333,0.000168283,0.0002151455,1.228185E-05,0.0002867722,0.0003129895,0.0002839832,0.005017148,0.005190673,0.103784,0.1109964,0.0004957292,0.05140255,0,0.009019838,0.008995463,0.02085136,0.02252018,0.000543825,0.05529399,0,0,0,0.09525357,0.1067683,0.03698935,0.3341498,0.0001269002,0.0004457371,0.0005872294,0.002058363,0.002164369,1,0,-78.93869,"NAN",1,0,960,0.4485292,163.039,11.94753,16.83656,0,0,30.06961,29.94383,1,1,22.77802,9.53635
"2023-03-14 14:12:54.9",798,11,0,100,394.4637,4.310762,0,30.00004,-0.9999604,73.50271,71.34478,0.02394125,23.05446,23.01284,2.341377,2.970214,2.243688,53.60681,43.01897,-19.9999,785.8909,12323,48.36323,43.97841,90.36032,87.50188,-26.99992,881.0143,12662,1,1,171.3285,66.82229,400.0357,400.0371,0.3782303,0.4675749,0.5539637,23.74339,11.76715,0,0.2517297,0.002639032,0,0.01182251,0.0002636877,0.000229824,0.0002567912,1.097945E-05,0.0003785754,0.0003767996,0.0003173429,0.003760906,0.003543348,0.07676237,0.07665902,0.0005673219,0.05793119,0,0.006980687,0.006829234,0.01652998,0.0162601,0.0005361371,0.05300456,0,0,0,0.1430268,0.3963916,0.05366599,0.06570466,0.0003665648,8.000986E-05,0.0006072334,0.002189682,0.002270031,1,0,-77.41827,"NAN",1,0,960,0.4551594,163.5613,11.92496,16.85281,0,0,30.07398,30.00782,1,1,22.81143,9.54126
"2023-03-14 14:19:14.9",817,12,0,100,425.3636,4.643227,0,29.99837,-0.999966,73.50334,71.34544,0.02394397,23.08488,23.04388,2.345356,2.969485,2.245024,53.58813,43.03815,-19.99992,786.8699,12323,47.97806,43.50883,89.65125,86.5955,-26.99992,881.9769,12664,1,1,170.0716,39.87965,399.9071,399.9855,0.3623402,0.4711873,0.5536829,23.7746,11.76736,0,0.2879783,0.003107335,0,0.01128781,0.0002410604,0.0001825019,0.0002506548,1.319385E-05,0.0003014391,0.0003559462,0.0002898602,0.004013496,0.00398169,0.08293376,0.08563751,0.0005711613,0.05476723,0,0.008143204,0.007785691,0.01813062,0.01887443,0.0005451499,0.05330122,0,0,0,0.1672254,1.179455,0.1200835,0.06572421,0.001183448,7.952879E-05,0.0005825231,0.002055823,0.002136902,1,0,-81.28264,"NAN",1,0,960,0.4101926,162.8544,11.89674,16.84412,0,0,30.12559,30.03342,1,1,22.8408,9.538059
"2023-03-14 14:25:34.9",836,13,0,100,393.1404,4.298126,0,30.00025,-0.9999632,73.50434,71.3465,0.02394327,23.11409,23.07392,2.349282,2.969657,2.245127,53.58119,43.03538,-19.99993,787.8329,12323,48.38763,43.99855,90.39497,87.52423,-26.9999,882.9197,12668,1,1,171.25,77.48988,400.0351,400.0433,0.3825698,0.4664387,0.5537001,23.80312,11.76739,0,0.2387356,0.00189948,0,0.009318241,0.0002447964,0.000240215,0.000255805,1.438349E-05,0.0003583387,0.0003188218,0.000294778,0.003968067,0.003283269,0.08310154,0.0711987,0.0005220422,0.05129731,0,0.006923425,0.006262429,0.01630773,0.01548248,0.0004913541,0.04783801,0,0,0,0.6616489,0.5614786,0.05962609,0.109273,0.0004850088,9.642574E-05,0.0004793419,0.002079025,0.00228483,1,0,-80.65338,"NAN",1,0,960,0.442571,162.4387,11.864,16.81776,0,0,30.17128,30.07367,1,1,22.86791,9.536967
"2023-03-14 14:31:54.9",855,20,0,100,1.301703,0.01712609,0,29.99993,-0.9999716,73.50475,71.34689,0.0239439,23.14473,23.10521,2.353119,2.970624,2.246874,53.58725,43.06984,-19.99993,788.7783,12323,53.57973,50.51611,99.93238,99.97793,-26.99991,883.8523,12669,1,1,168.6358,100.103,400.0028,400.4828,0.3927028,0.4671721,0.5539561,23.83034,11.76746,0,0.5527336,0.006010931,0,0.01201469,0.0002821078,0.0002577057,0.0003022338,1.231178E-05,0.0003455271,0.0003625101,0.0003394196,0.002679324,0.002634785,0.05540723,0.05532816,0.0005406921,0.05245052,0,0.008493669,0.01053909,0.01603712,0.02103993,0.0005360881,0.05215361,0,0,0,0.1903651,0.09241444,0.01779874,0.4991742,3.88572E-05,0.001895144,0.0006174645,0.002170874,0.00227233,1,0,-81.51733,"NAN",1,0,960,0.4318968,161.8607,11.82964,16.80106,0,0,30.20453,30.07677,1,1,22.89728,9.53772
"2023-03-14 14:38:14.9",874,21,0,100,81.27341,0.895946,0,29.99986,-0.9999646,73.50536,71.34748,0.02394637,23.17484,23.13563,2.356892,2.969643,2.247874,53.55317,43.08967,-19.99988,789.7202,12323,52.48421,49.10938,97.90708,97.29369,-26.99992,884.757,12668,1,1,168.6005,109.8808,399.9931,400.0241,0.3966281,0.4634218,0.5544817,23.85662,11.76655,0,0.1362457,0.001327101,0,0.01060413,0.0002374264,0.0001449812,0.0002315291,1.251902E-05,0.0003359536,0.0003720796,0.0002853132,0.002317412,0.002235417,0.04347176,0.04503728,0.0005476958,0.05245744,0,0.003702056,0.003370553,0.009096024,0.008230709,0.0005411601,0.05408027,0,0,0,0.1964632,0.1215874,0.02715521,0.04920401,6.127872E-05,4.320057E-05,0.0005418392,0.002247526,0.002306575,1,0,-78.51176,"NAN",1,0,960,0.4435063,162.3081,11.76843,16.80631,0,0,30.21626,30.11815,1,1,22.92691,9.542001
"2023-03-14 14:44:34.9",893,23,0,100,378.9063,4.169515,0,30.00072,-0.9999736,73.50638,71.34841,0.02394514,23.20503,23.16771,2.360443,2.96852,2.248384,53.52021,43.09768,-19.99989,790.6411,12323,48.57634,44.19812,90.71511,87.90649,-26.99991,885.6421,12669,1,1,168.6095,145.8665,400.0005,400.0511,0.4077133,0.4583539,0.5538196,23.87976,11.76505,0,0.2183123,0.002069172,0,0.01253718,0.0002483675,0.0001840262,0.0001896079,1.265577E-05,0.0003036163,0.0002837378,0.0002981636,0.001486639,0.001425654,0.03075643,0.02975426,0.0005707294,0.05626579,0,0.003711002,0.003372109,0.007741368,0.007956123,0.0005286994,0.05119715,0,0,0,0.1685633,0.1100024,0.01916772,0.1408909,4.761222E-05,0.0001505741,0.0006407709,0.001964092,0.002046121,1,0,-79.3739,"NAN",1,0,960,0.4261639,162.7404,11.7785,16.81754,0,0,30.27011,30.13904,1,1,22.95376,9.544078
"2023-03-14 14:50:54.9",912,26,4,100,1175.002,12.94519,0,30.00113,-0.9999722,73.50667,71.34873,0.0239458,23.23362,23.19475,2.364086,2.962887,2.244177,53.41301,43.01604,-19.99991,791.54,12323,39.45428,33.28576,73.90981,66.89704,-26.99994,886.4948,12648,1,1,169.5455,0.7380875,401.7264,399.8591,0.2924094,0.4727714,0.5541463,23.90313,11.7658,0,0.9862865,0.01001424,0,0.01119347,0.0002226162,0.0001949984,0.0002400462,1.312559E-05,0.0003031211,0.0003428381,0.0002677149,0.002237057,0.002898724,0.04643067,0.06014282,0.0005632852,0.05465807,0,0.01056506,0.01113318,0.02045603,0.02207101,0.0005307416,0.05052546,0,0,0,0.5947769,0.5067536,0.525223,0.4516777,0.01517228,0.000483066,0.0005746219,0.002513142,0.002222645,1,0,-77.33347,"NAN",1,0,960,0.4360798,162.3375,11.7347,16.81389,0,0,30.27108,30.17175,1,1,22.97925,9.540181
"2023-03-14 14:57:14.9",931,2,0,100,295.4497,3.263177,0,30.0007,-0.9999709,73.50723,71.34944,0.02394612,23.25366,23.21174,2.367573,2.967402,2.248678,53.49459,43.09891,-19.99988,792.4117,12323,49.65395,45.54747,92.69172,90.47475,-26.99984,887.3677,12666,1,1,163.187,53.13565,399.9896,399.9113,0.3715168,0.4854949,0.5547396,23.92202,11.7683,0,1.428112,0.01549145,0,0.01109517,0.0002445163,0.0001356275,0.0002138405,1.350513E-05,0.0003807272,0.0002369015,0.0002939533,0.001898583,0.001552634,0.03796264,0.03405505,0.0005399552,0.05582291,0,0.0192969,0.02280275,0.03515156,0.04314909,0.0006196736,0.05969714,0,0,0,0.09874582,0.2071218,0.01848187,0.3519482,8.589577E-05,0.0003956885,0.0005756806,0.00212759,0.002215189,1,0,-78.5654,"NAN",1,0,960,0.474783,162.4057,11.52695,16.81379,0,0,30.30314,30.19605,1,1,22.98088,9.537037
"2023-03-14 15:03:34.9",950,10,0,100,431.336,4.703587,0,29.99997,-0.999975,73.50768,71.34976,0.02394719,23.2672,23.22073,2.370838,2.964871,2.248528,53.44923,43.09167,-19.99994,793.2402,12323,47.90686,43.44994,89.48857,86.47977,-26.99995,888.1556,12667,1,1,170.1062,46.88679,400.0143,400.0454,0.3663695,0.468413,0.5539989,23.92648,11.76716,0,0.2348564,0.002480458,0,0.01027522,0.0002281027,0.0002047582,0.0002156653,1.231312E-05,0.0002956522,0.0002295667,0.000276269,0.001736181,0.001751964,0.03759293,0.03716527,0.0005420115,0.05326132,0,0.004049277,0.003532474,0.008089881,0.008372361,0.0005269721,0.05339874,0,0,0,0.09166092,0.1145761,0.03415103,0.3481487,0.0001124674,0.0004733369,0.0005335716,0.00203839,0.00217119,1,0,-76.95529,"NAN",1,0,960,0.4190539,162.1202,11.38824,16.81534,0,0,30.30444,30.19797,1,1,22.99488,9.538347
"2023-03-14 15:09:54.9",969,11,0,100,394.5582,4.308615,0,30.00021,-0.9999826,73.50834,71.35047,0.02394586,23.27223,23.22006,2.37383,2.965177,2.248624,53.45725,43.08888,-19.99997,794.0126,12323,48.36663,44.00801,90.33755,87.55033,-26.99992,888.9124,12658,1,1,171.3757,60.61303,400.0279,400.0272,0.3754983,0.466056,0.5539591,23.93295,11.76795,0,0.1803603,0.001988722,0,0.01111302,0.000243366,0.0001933567,0.0002493771,1.267948E-05,0.0002076867,0.0002308422,0.0002930396,0.001983242,0.002188604,0.04142979,0.04496125,0.0005461182,0.05495112,0,0.004480655,0.004267056,0.009967647,0.01085632,0.0005703525,0.05650393,0,0,0,0.114426,0.3257076,0.04350935,0.05601794,0.0003450191,6.240199E-05,0.0005694781,0.002244463,0.002315283,1,0,-79.60315,"NAN",1,0,960,0.4508266,162.4849,11.32025,16.81811,0,0,30.30593,30.19276,1,1,22.98102,9.540256
"2023-03-14 15:16:14.9",988,12,0,100,425.6662,4.641054,0,30.00015,-0.9999819,73.50863,71.35086,0.02394732,23.27263,23.21406,2.376558,2.964993,2.248323,53.45619,43.08104,-19.99995,794.7335,12323,47.97292,43.53722,89.61988,86.6504,-26.99992,889.6121,12661,1,1,170.1443,39.73129,399.9174,399.9933,0.3624854,0.4686668,0.5537641,23.92601,11.7674,0,0.26352,0.002635767,0,0.01016545,0.0002620042,0.0002535625,0.0002603304,1.195922E-05,0.0002133857,0.0001955004,0.0003154112,0.003329022,0.003157755,0.06830375,0.06805668,0.0005235989,0.05112075,0,0.007162971,0.005826882,0.01672786,0.01416838,0.0005676012,0.05576362,0,0,0,0.1618441,0.9979251,0.104996,0.05631227,0.001032472,7.505316E-05,0.0005232106,0.002057258,0.002050095,1,0,-76.89474,"NAN",1,0,960,0.4473591,161.4365,11.29441,16.79967,0,0,30.30298,30.19697,1,1,22.98088,9.530391
"2023-03-14 15:22:34.9",1007,13,0,100,393.1819,4.29254,0,29.99908,-0.9999785,73.50907,71.35135,0.02395152,23.26874,23.20311,2.379008,2.96378,2.247082,53.43783,43.05606,-19.99993,795.3903,12323,48.37624,44.02687,90.36219,87.58916,-26.99991,890.2516,12666,1,1,171.4266,56.79043,400.0222,400.0349,0.3731098,0.466141,0.5538549,23.91623,11.76724,0,0.1701164,0.001839742,0,0.01059775,0.0002631815,0.0001917643,0.000254141,1.336089E-05,0.0002007092,0.00019163,0.0003158055,0.002622949,0.00270439,0.05507716,0.05648787,0.0005652854,0.05593211,0,0.005554844,0.004571273,0.01209697,0.01099636,0.0005585963,0.0560635,0,0,0,0.4073531,0.4873611,0.08085342,0.06448822,0.0005516742,6.629968E-05,0.0005504336,0.002352495,0.002328259,1,0,-77.48383,"NAN",1,0,960,0.4542004,161.5631,11.21408,16.78989,0,0,30.30298,30.17175,1,1,22.9539,9.535822
"2023-03-14 15:28:54.9",1026,20,0,100,1.519083,0.01556466,0,29.99974,-0.9999743,73.50957,71.35195,0.02394785,23.26378,23.19635,2.38126,2.96578,2.250263,53.46631,43.11196,-19.9999,795.994,12323,53.57874,50.54067,99.91956,100.0331,-26.99991,890.8529,12667,1,1,168.7725,100.0286,400.0023,400.0766,0.3918338,0.462583,0.5536707,23.90518,11.76714,0,0.5591899,0.005937404,0,0.01106269,0.000218517,0.0002340992,0.0003111583,1.345272E-05,0.0002826722,0.0002322749,0.0002632054,0.002514213,0.002530835,0.05152352,0.05389433,0.0005435857,0.05453332,0,0.009431696,0.01072262,0.01799482,0.02140839,0.0004917161,0.05047098,0,0,0,0.176307,0.1000019,0.02038858,0.1740599,5.338003E-05,0.0001941075,0.000569178,0.001750143,0.002388862,1,0,-77.39986,"NAN",1,0,960,0.4443636,161.3236,11.08644,16.78985,0,0,30.27011,30.13985,1,1,22.95376,9.534165
"2023-03-14 15:35:14.9",1045,21,0,100,75.43477,0.8282086,0,30.00009,-0.9999785,73.50955,71.35202,0.02394798,23.26114,23.19503,2.383169,2.965501,2.249801,53.46323,43.09855,-19.99997,796.5478,12323,52.5555,49.23429,98.04282,97.54077,-26.99996,891.3867,12667,1,1,168.7973,109.6643,400.0005,400.0264,0.3957703,0.4618257,0.5543919,23.89682,11.76698,0,0.07340704,0.000863972,0,0.01122827,0.0002509964,0.0002337611,0.0002881469,1.264232E-05,0.0002324269,0.0001720834,0.0003030552,0.00214053,0.002139091,0.0463569,0.04572433,0.0005555634,0.05385236,0,0.003511536,0.003366149,0.00891675,0.008270567,0.0005913195,0.05769454,0,0,0,0.1768299,0.1205861,0.0216996,0.05539642,4.852582E-05,8.118665E-05,0.0005757777,0.002088775,0.002152221,1,0,-80.51741,"NAN",1,0,960,0.4736083,161.688,11.08588,16.78289,0,0,30.27011,30.13904,1,1,22.95376,9.543369
"2023-03-14 15:41:34.9",1064,23,0,100,352.4673,3.877004,0,30.00074,-0.9999716,73.50986,71.35242,0.02394678,23.25907,23.1953,2.385103,2.963547,2.247115,53.42939,43.04391,-19.99997,797.0711,12323,48.89182,44.62362,91.30772,88.72559,-26.99998,891.882,12665,1,1,168.7995,145.5009,400.0007,400.0237,0.4072167,0.4578393,0.5543602,23.88212,11.7645,0,0.2032854,0.002216684,0,0.01115851,0.0002394244,0.0002285725,0.00023768,1.156978E-05,0.0003959119,0.0002399578,0.0002882919,0.002902304,0.003032077,0.06056693,0.06677271,0.0005458801,0.05163176,0,0.00479525,0.00494374,0.01133863,0.01185759,0.0004937372,0.04751521,0,0,0,0.1774589,0.09761231,0.01860156,0.1267044,4.40303E-05,0.0001684619,0.0005703971,0.002158342,0.002308113,1,0,-77.67915,"NAN",1,0,960,0.4652458,161.6263,11.13633,16.77891,0,0,30.27011,30.13856,1,1,22.94145,9.53075
"2023-03-14 15:47:54.9",1083,26,4,100,1095.364,12.06577,0,30.00126,-0.9999826,73.51044,71.35301,0.02394624,23.25492,23.19499,2.386876,2.961857,2.244577,53.40157,42.99277,-19.99996,797.5675,12323,40.26589,34.24974,75.42553,68.76885,-27.00001,892.3365,12648,1,1,169.8135,0.6933024,401.7449,399.9158,0.290596,0.4746884,0.5535523,23.86997,11.76518,0,0.801829,0.008341181,0,0.01268261,0.0002349039,0.000250117,0.0002969575,1.131895E-05,0.0002124193,0.0001985914,0.0002823911,0.001841648,0.001838143,0.03669697,0.04053525,0.000597938,0.05766572,0,0.007199889,0.00822196,0.01332177,0.01608511,0.0004998599,0.04965983,0,0,0,0.5641732,0.4772474,0.4660468,0.4983872,0.015386,0.0006770657,0.0006369709,0.001655122,0.002231132,1,0,-77.55878,"NAN",1,0,960,0.4471937,161.3382,11.08024,16.77371,0,0,30.2373,30.10982,1,1,22.92425,9.5308
"2023-03-14 15:54:14.9",1102,2,0,100,295.0791,3.260058,0,30.00007,-0.9999792,73.51086,71.35355,0.02394618,23.24067,23.18583,2.388449,2.965001,2.248515,53.43896,43.07246,-19.99991,797.9924,12323,49.64273,45.56008,92.67476,90.50941,-26.99989,892.7792,12666,1,1,163.4187,53.2245,399.9908,399.9098,0.3711221,0.4863428,0.554409,23.85391,11.76664,0,1.274609,0.01409036,0,0.01093712,0.0002468052,0.000164921,0.0002350902,1.314673E-05,0.0002154391,0.0002578767,0.000296476,0.001846391,0.001850027,0.03873359,0.04014417,0.0006077309,0.06118592,0,0.01700461,0.02127279,0.03122721,0.04023282,0.0004599912,0.04599782,0,0,0,0.1106505,0.1924316,0.02039506,0.3363164,7.731141E-05,0.0003731366,0.0005623448,0.00190198,0.002211186,1,0,-81.28506,"NAN",1,0,960,0.4280139,161.586,10.93277,16.79527,0,0,30.20551,30.10635,1,1,22.89728,9.52949
"2023-03-14 16:00:34.9",1121,10,0,100,391.6532,4.272723,0,29.99968,-0.9999896,73.51073,71.35345,0.02394896,23.21967,23.17127,2.389754,2.965241,2.247668,53.45371,43.04925,-19.99997,798.345,12323,48.39108,44.05484,90.39409,87.64759,-26.99998,893.1142,12666,1,1,171.6489,48.95871,400.0254,400.1183,0.3672548,0.4672707,0.5534992,23.83527,11.76715,0,0.2008692,0.001936442,0,0.01066486,0.0002500711,0.00022739,0.0002532055,1.29646E-05,0.0003444176,0.0002756736,0.0003005264,0.002027022,0.001939809,0.04286704,0.04105645,0.0005294827,0.05481605,0,0.003578471,0.00340031,0.007362981,0.0069592,0.0005598642,0.05306215,0,0,0,0.1018585,0.1864042,0.04741742,0.3312643,0.0001892736,0.000273116,0.0005480743,0.001855086,0.002434523,1,0,-80.20077,"NAN",1,0,960,0.4444998,161.5906,10.92127,16.80113,0,0,30.20453,30.07463,1,1,22.86791,9.528947
"2023-03-14 16:05:34.9",1136,23,0,100,344.8285,3.79293,0,29.99914,-0.9999951,73.51098,71.35359,0.02394548,23.20009,23.15449,2.390609,2.965963,2.247788,53.44871,43.04892,-20,798.5734,12323,48.99332,44.74364,91.49328,88.9613,-27.00002,893.3363,12668,1,1,168.956,145.4873,400.0026,400.0872,0.4068504,0.4566248,0.5541723,23.81572,11.76432,0,0.1622627,0.001954181,0,0.01138728,0.0002247156,0.0001567202,0.0002346616,1.406886E-05,0.0002700558,0.0002948363,0.0002700308,0.00290113,0.00266333,0.06193016,0.05922204,0.0005304984,0.05262141,0,0.00442743,0.004320989,0.01007319,0.01009218,0.0004767937,0.04535542,0,0,0,0.1773773,0.1406256,0.02598315,0.124366,6.209427E-05,0.0001273132,0.0005845698,0.0021462,0.002127681,1,0,-79.73473,"NAN",1,0,960,0.4443317,161.2932,10.94172,16.78332,0,0,30.19896,30.07367,1,1,22.8408,9.523812