File: Greenhouse gas exchange and TDL/20230315 TGA Sampling System_SiteAvg.dat
"TOA5","TGA Sampling System","CR3000","3722","CR3000.Std.28.02","CPU:TGAsampling_v1_2_LICOR_high_CO2__site_11_13_CalTank2.CR3","2183","SiteAvg"
"TIMESTAMP","RECORD","valve_number","diag_system_Avg","NumSamples","Conc12C_Avg","Conc13C_Avg","TGAStatus_Avg","TGAPressure_Avg","LaserTemp_Avg","DCCurrentA_Avg","DCCurrentB_Avg","TGAAnalog1_Avg","TGATemp1_Avg","TGATemp2_Avg","LaserCooler_Avg","RefDetSigA_Avg","RefDetSigB_Avg","RefDetTransA_Avg","RefDetTransB_Avg","RefDetTemp_Avg","RefDetCooler_Avg","RefDetGainOffset_Avg","SmpDetSigA_Avg","SmpDetSigB_Avg","SmpDetTransA_Avg","SmpDetTransB_Avg","SmpDetTemp_Avg","SmpDetCooler_Avg","SmpDetGainOffset_Avg","TGATemp1DutyCycle_Avg","TGATemp2DutyCycle_Avg","SampleFlow_Avg","ExcessFlow_Avg","SamplePress_Avg","BypassPress_Avg","SampleP_control_Avg","BypassP_control_Avg","TGAPress_control_Avg","panel_tmpr_Avg","batt_volt_Avg","buff_depth_Max","Conc12C_Std","Conc13C_Std","TGAStatus_Std","TGAPressure_Std","LaserTemp_Std","DCCurrentA_Std","DCCurrentB_Std","TGAAnalog1_Std","TGATemp1_Std","TGATemp2_Std","LaserCooler_Std","RefDetSigA_Std","RefDetSigB_Std","RefDetTransA_Std","RefDetTransB_Std","RefDetTemp_Std","RefDetCooler_Std","RefDetGainOffset_Std","SmpDetSigA_Std","SmpDetSigB_Std","SmpDetTransA_Std","SmpDetTransB_Std","SmpDetTemp_Std","SmpDetCooler_Std","SmpDetGainOffset_Std","TGATemp1DutyCycle_Std","TGATemp2DutyCycle_Std","SampleFlow_Std","ExcessFlow_Std","SamplePress_Std","BypassPress_Std","SampleP_control_Std","BypassP_control_Std","TGAPress_control_Std","panel_tmpr_Std","batt_volt_Std","Li64Match_Avg(1)","Li64Match_Avg(2)","Li64Tmpr_Avg(1)","Li64Tmpr_Avg(2)","Li64Heat_Avg(1)","Li64Heat_Avg(2)","_Mix_diag_system_Avg","_Mix_ExcessZeroFlow_Avg","_Mix_ExcessMixFlow_Avg","_Mix_CO2Press_Avg","_Mix_ZeroPress_Avg","_Mix_CO2P_control_Avg","_Mix_ZeroP_control_Avg","_Mix_MixTmpr1_Avg","_Mix_MixTmpr2_Avg","_Mix_MixHeat1_Avg","_Mix_MixHeat2_Avg","_Mix_panel_tmpr_Avg","_Mix_batt_volt_Avg"
"TS","RN","","","","ppm","ppm","","mb","degC","mA","mA","V","degC","degC","V","mV","mV","%","%","degC","","","mV","mV","%","%","degC","","","","","ml_min","ml_min","mb","mb","","","","degC","V","","ppm","ppm","","mb","degC","mA","mA","V","degC","degC","V","mV","mV","%","%","degC","","","mV","mV","%","%","degC","","","","","ml_min","ml_min","mb","mb","","","","degC","V","","","degC","degC","","","","","","","","","","","","","","",""
"","","Smp","Avg","Tot","Avg","Avg","Avg","Avg","Avg","Avg","Avg","Avg","Avg","Avg","Avg","Avg","Avg","Avg","Avg","Avg","Avg","Avg","Avg","Avg","Avg","Avg","Avg","Avg","Avg","Avg","Avg","Avg","Avg","Avg","Avg","Avg","Avg","Avg","Avg","Avg","Max","Std","Std","Std","Std","Std","Std","Std","Std","Std","Std","Std","Std","Std","Std","Std","Std","Std","Std","Std","Std","Std","Std","Std","Std","Std","Std","Std","Std","Std","Std","Std","Std","Std","Std","Std","Std","Avg","Avg","Avg","Avg","Avg","Avg","Avg","Avg","Avg","Avg","Avg","Avg","Avg","Avg","Avg","Avg","Avg","Avg","Avg"
"2023-03-15 09:30:44.2",0,20,0,100,3.734803,0.04075382,0,29.99858,-0.9999909,73.48408,71.32618,0.02390591,21.3095,21.25833,2.224418,2.95771,2.149852,53.57532,41.41557,-19.99997,756.5296,12325,53.47712,50.4229,99.84169,99.90038,-26.99997,852.3878,12671.79,1,1,169.5622,99.53049,399.9895,400.0781,0.4085672,0.4820625,0.5234513,23.14129,11.76678,0,0.5912907,0.006339824,0,0.01034634,0.0002329777,0.0001975577,0.0002573366,1.159613E-05,0.0004814295,0.0004968439,0.0002793019,0.002446487,0.002700078,0.04516771,0.05332609,0.0005150973,0.04981704,0,0.008425273,0.01126413,0.01498458,0.02106554,0.0004673779,0.04626663,1.321325,0,0,0.1614257,0.122963,0.02499093,0.1898016,0.0001099482,0.0002221413,0.0005407388,0.002030661,0.002555778,1,0,-78.9656,"NAN",1,0,"NAN","NAN","NAN","NAN","NAN","NAN","NAN","NAN","NAN","NAN","NAN","NAN","NAN"
"2023-03-15 09:37:24.2",20,23,0,100,393.7203,4.327048,0,30.00036,-0.9999868,73.48431,71.32634,0.02390791,21.36906,21.32193,2.225404,2.980987,2.178678,53.97072,41.94268,-19.99998,756.7665,12325,48.38166,43.73125,90.46316,87.10994,-26.99999,852.6088,12667,1,1,169.2893,145.3879,399.9972,400.0698,0.4195235,0.4688842,0.5339148,23.14287,11.76239,0,0.2312676,0.002582697,0,0.0139668,0.000273831,0.0002608657,0.0002775471,1.173711E-05,0.0004698191,0.0005668129,0.0003292704,0.001483437,0.001450847,0.03335558,0.03051019,0.0004906117,0.04782763,0,0.002970713,0.002711695,0.006588474,0.006029192,0.0004709069,0.04427411,0,0,0,0.2200942,0.1381349,0.02236212,0.1347256,5.049075E-05,0.0001353732,0.0007149065,0.001858986,0.002336571,1,0,-80.135,"NAN",1,0,960,0.485593,165.1888,12.1653,16.88288,0,0,28.05579,28.11703,1,1,20.68999,9.52231
"2023-03-15 09:44:04.2",40,2,0,100,295.7192,3.263592,0,29.99922,-0.9999937,73.48466,71.32656,0.02390342,21.43369,21.38677,2.226773,3.010103,2.214998,54.46321,42.61575,-19.99996,757.1032,12325,49.69397,45.4338,92.85609,90.35864,-26.99987,852.9489,12662,1,1,164.0011,53.33808,399.9909,399.9048,0.3795717,0.4914043,0.5385234,23.12962,11.76514,0,1.433004,0.01560397,0,0.0124907,0.000235562,0.0001155463,0.0002187933,1.170098E-05,0.0006054115,0.0005372501,0.0002826737,0.005185739,0.005143877,0.116432,0.1176312,0.0007925219,0.07768305,0,0.02134836,0.02412738,0.04073749,0.04586599,0.001167545,0.1099074,0,0,0,0.113009,0.2138763,0.02131672,0.3505433,8.010372E-05,0.0003885569,0.000638063,0.001763724,0.002200116,1,0,-77.94353,"NAN",1,0,960,0.4833324,165.0699,11.97866,16.88003,0,0,28.05759,28.1174,1,1,20.74435,9.527785
"2023-03-15 09:50:44.2",60,11,0,100,394.3661,4.305479,0,30.00005,-0.9999875,73.48508,71.32701,0.02390544,21.50355,21.45882,2.228593,3.013816,2.221267,54.53342,42.71941,-19.99993,757.5533,12325,48.46461,43.89839,90.60632,87.42149,-26.99994,853.3694,12665,1,1,171.2366,56.61077,400.0157,400.017,0.3780777,0.4696765,0.5404127,23.10896,11.76458,0,0.2348948,0.002352031,0,0.01006067,0.0002482081,0.0002189357,0.0002516754,1.259092E-05,0.0005434687,0.0005351052,0.0002982951,0.001609332,0.001402515,0.03284417,0.0302452,0.0004861977,0.04787132,0,0.002457171,0.002278082,0.005144739,0.004834184,0.0004951541,0.04855998,0,0,0,0.1164703,0.318439,0.04872318,0.03933078,0.0002975769,4.571706E-05,0.0005165646,0.001683149,0.002211704,1,0,-79.58279,"NAN",1,0,960,0.5022837,165.1278,11.70889,16.87375,0,0,28.10499,28.18238,1,1,20.82555,9.533373
"2023-03-15 09:57:24.2",80,13,0,100,395.793,4.320474,0,30.00036,-0.9999763,73.48563,71.32757,0.02390772,21.57962,21.53664,2.230872,3.012139,2.222495,54.49569,42.7338,-19.99995,758.1008,12325,48.44566,43.88115,90.56801,87.37778,-26.99991,853.9071,12667,1,1,171.9736,53.94259,400.0011,400.1418,0.3745785,0.4710397,0.5424048,23.09006,11.76499,0,0.1647022,0.001871583,0,0.01128653,0.0002437796,0.0002380177,0.0002396676,1.15794E-05,0.0009721103,0.0006743541,0.0002934805,0.001482636,0.001339663,0.03268215,0.02948737,0.0005272985,0.05118082,0,0.002788989,0.003017333,0.005380982,0.006197983,0.000451674,0.04668443,0,0,0,0.4215962,0.2846145,0.06972419,0.1014762,0.0003267258,0.0005256484,0.0005751403,0.00195641,0.002288667,1,0,-77.10326,"NAN",1,0,960,0.5028902,164.6812,11.43947,16.88118,0,0,28.17843,28.24036,1,1,20.90688,9.529177
"2023-03-15 10:04:04.2",100,21,0,100,76.91525,0.8430855,0,30.00003,-0.9999716,73.48616,71.32813,0.02390759,21.66175,21.62122,2.233607,3.010059,2.223807,54.45365,42.75537,-19.99992,758.7561,12325,52.51609,49.13767,98.05647,97.42164,-26.99994,854.5491,12670,1,1,169.3054,109.3228,400.0008,400.0268,0.3971299,0.4614112,0.5433818,23.07862,11.76388,0,0.07055092,0.0006327201,0,0.009254616,0.0002492863,0.0002170833,0.0002612189,1.288516E-05,0.0006244709,0.0005294864,0.0002993885,0.001502191,0.001435512,0.02651091,0.0287758,0.0005063621,0.05120376,0,0.002563417,0.002336916,0.005263733,0.004712884,0.0005410045,0.05383919,0,0,0,0.1959762,0.1076685,0.02124891,0.04933925,4.890462E-05,5.623133E-05,0.0004752197,0.002031558,0.001994379,1,0,-77.88662,"NAN",1,0,960,0.4799233,164.449,11.17704,16.86549,0,0,28.2416,28.30362,1,1,21.01532,9.533681
"2023-03-15 10:10:44.2",120,26,4,100,1088.01,11.97745,0,29.99784,-0.9999702,73.48669,71.3287,0.02390449,21.74808,21.71002,2.236758,3.004925,2.220346,54.34806,42.68972,-19.99991,759.5085,12325,40.62619,34.18944,76.14766,68.69954,-26.99996,855.2463,12646,1,1,170.1877,0.2182495,401.4161,399.8504,0.2662601,0.4718302,0.544403,23.07406,11.76311,0,0.8145162,0.008632023,0,0.0148786,0.000225555,0.0001974503,0.0002504915,1.133057E-05,0.0008389072,0.0006884504,0.0002725494,0.001389629,0.001220873,0.0259268,0.02450836,0.0005306966,0.05280077,0,0.007066427,0.00847264,0.01326616,0.01656488,0.0005146554,0.05105466,0,0,0,0.09858058,0.04779791,0.0852624,0.4537941,0.01262636,0.0004724376,0.0007886596,0.001585377,0.002129737,1,0,-78.02376,"NAN",1,0,960,0.4894755,163.7186,11.00446,16.82723,0,0,28.32375,28.38593,1,1,21.10037,9.534039
"2023-03-15 10:17:24.2",140,10,0,100,436.244,4.753798,0,29.99995,-0.9999729,73.48724,71.32927,0.02391265,21.83743,21.80073,2.240318,3.005412,2.224651,54.3401,42.77243,-19.99994,760.3489,12325,47.94931,43.27381,89.63833,86.19727,-26.99991,856.0867,12666,1,1,169.537,46.78621,400.0128,400.0406,0.3656963,0.4675431,0.545264,23.08029,11.76491,0,0.2362408,0.002768529,0,0.01106146,0.0002402029,0.0002687274,0.0002923226,1.07647E-05,0.000569556,0.0006490515,0.0002886517,0.001273771,0.00110499,0.02693628,0.02168119,0.0004846209,0.04678179,0,0.003612942,0.003867095,0.007111122,0.007506587,0.0005030407,0.05010872,0,0,0,0.09535293,0.09774514,0.02323178,0.3538902,0.000139113,0.0004920742,0.0005691302,0.001875009,0.002014207,1,0,-79.03218,"NAN",1,0,960,0.5005712,163.1537,10.91567,16.81009,0,0,28.41912,28.47944,1,1,21.23221,9.532948
"2023-03-15 10:24:04.2",160,12,0,100,429.1405,4.677155,0,30.00026,-1.000004,73.48808,71.33007,0.02391467,21.92653,21.89138,2.244075,3.001954,2.225562,54.26393,42.79389,-19.99991,761.2812,12325,48.03221,43.39177,89.7757,86.42857,-26.99991,856.9902,12666,1,1,170.612,45.05196,399.9377,399.9868,0.3649516,0.4666819,0.5464733,23.09456,11.76485,0,0.1734934,0.001975209,0,0.01152182,0.0002501759,0.0002402869,0.0002464457,1.155524E-05,0.0007501808,0.0006715725,0.0003002604,0.001206076,0.00110182,0.02337389,0.02274198,0.0005484763,0.05245606,0,0.002665339,0.00214921,0.005745928,0.005287518,0.0004943393,0.04936048,0,0,0,0.1439556,0.7046896,0.08666072,0.03377903,0.0007025077,2.609885E-05,0.0005921063,0.001786342,0.002110071,1,0,-77.00547,"NAN",1,0,960,0.4613362,163.0209,10.82912,16.80965,0,0,28.54294,28.58615,1,1,21.34065,9.540516
"2023-03-15 10:30:44.2",180,20,0,100,1.825116,0.01878732,0,30.0005,-0.9999604,73.48915,71.33112,0.0239098,22.01859,21.98552,2.24839,3.000995,2.229982,54.23796,42.8735,-19.99989,762.3041,12325,53.55276,50.49565,99.91741,100.0177,-26.99988,858.0067,12665,1,1,169.0547,99.25168,400.0015,400.0947,0.3902783,0.4613034,0.547587,23.11933,11.765,0,0.5657079,0.005954701,0,0.009677293,0.0002332395,0.0002143506,0.0002881262,1.177097E-05,0.0007977087,0.0008275273,0.0002804926,0.00285379,0.002561394,0.0528095,0.05261765,0.0005383599,0.05164419,0,0.008090418,0.01019892,0.01562576,0.02012714,0.0005031221,0.04626711,0,0,0,0.1505405,0.0789973,0.01968133,0.1733149,4.940482E-05,0.0002007734,0.0004970293,0.001983533,0.002258225,1,0,-76.98229,"NAN",1,0,960,0.501087,163.1548,10.77276,16.81758,0,0,28.66701,28.69838,1,1,21.45136,9.539974
"2023-03-15 10:37:24.2",200,23,0,100,338.0394,3.717203,0,29.9994,-0.9999583,73.48997,71.332,0.02391195,22.1124,22.08109,2.253036,2.99493,2.228457,54.13747,42.83531,-19.99988,763.4098,12325,49.14035,44.78753,91.80918,89.10888,-26.9999,859.0689,12667,1,1,168.9322,144.7452,400.0016,400.0506,0.4055578,0.4568142,0.5481312,23.15376,11.76266,0,0.183828,0.00180363,0,0.01089782,0.0002631647,0.0002453177,0.000241536,1.078496E-05,0.0006018695,0.0006814915,0.0003168112,0.001269345,0.001311114,0.0240539,0.0289988,0.0005182009,0.04958216,0,0.003097442,0.003063959,0.006039685,0.00635906,0.0004922581,0.04876504,0,0,0,0.1732036,0.08832164,0.02080283,0.1516367,4.923561E-05,0.0001681371,0.0005590864,0.002144976,0.002037339,1,0,-77.11306,"NAN",1,0,960,0.4849653,163.3067,10.72042,16.81619,0,0,28.77579,28.79353,1,1,21.56005,9.541439
"2023-03-15 10:44:04.2",220,2,0,100,295.7625,3.267323,0,30.00049,-0.9999632,73.49038,71.33253,0.02391849,22.20346,22.17281,2.257923,2.9915,2.229044,54.07905,42.84383,-19.99987,764.5856,12325,49.67767,45.4852,92.79712,90.42861,-26.99984,860.2213,12665,1,1,163.4949,53.26554,399.9924,399.9302,0.3699,0.4841831,0.5493994,23.19787,11.76638,0,1.227436,0.01362279,0,0.0119303,0.0002637482,0.0001537886,0.0002156286,1.142533E-05,0.0004909734,0.0006926281,0.0003167868,0.00118595,0.001244794,0.02596857,0.02639105,0.0004677666,0.04335525,0,0.01568125,0.01950786,0.02929351,0.03682842,0.0005290569,0.04906186,0,0,0,0.1118507,0.2166333,0.01927304,0.3424222,6.487817E-05,0.000417292,0.0006185657,0.001579148,0.002376536,1,0,-77.39282,"NAN",1,0,960,0.4606725,162.9461,10.66323,16.80204,0,0,28.88648,28.91794,1,1,21.69192,9.541008
"2023-03-15 10:50:44.2",240,11,0,100,395.2218,4.318464,0,30.00074,-0.9999597,73.49133,71.33372,0.02392048,22.2891,22.25716,2.263011,2.98861,2.22909,54.04454,42.82981,-19.99989,765.8217,12325,48.4045,43.92004,90.47872,87.43158,-26.99986,861.4308,12666,1,1,171.5724,56.65966,400.0271,400.024,0.3715029,0.4653137,0.5493403,23.24035,11.76609,0,0.2023278,0.001878864,0,0.01067486,0.0002343525,0.0002239034,0.0002273729,1.215168E-05,0.0006407331,0.0005908833,0.0002840215,0.001378421,0.001353408,0.02701085,0.02746755,0.0005086018,0.04936336,0,0.002995479,0.003285474,0.005744612,0.007026992,0.0004450456,0.04385674,0,0,0,0.1002551,0.312144,0.0412381,0.03986146,0.0003722534,5.489727E-05,0.0005456459,0.001798664,0.002148653,1,0,-77.94992,"NAN",1,0,960,0.4558476,162.926,10.57128,16.8027,0,0,29.01285,29.01357,1,1,21.78872,9.542059
"2023-03-15 10:57:24.2",260,13,0,100,393.5081,4.29979,0,30.00077,-0.9999452,73.49222,71.33482,0.02392039,22.36935,22.33753,2.268271,2.986734,2.230036,53.9981,42.85576,-19.99986,767.1033,12325,48.42418,43.94553,90.51119,87.47761,-26.99988,862.6739,12662,1,1,171.3658,26.93397,399.9217,399.9989,0.3518518,0.4662623,0.5499305,23.28246,11.76587,0,0.245929,0.00285621,0,0.01257156,0.0002546503,0.0002999301,0.0003381431,1.40452E-05,0.0005625391,0.0005891509,0.0003099091,0.00223867,0.00222559,0.05013254,0.05027865,0.0006380058,0.05962362,0,0.003691854,0.003563879,0.006755764,0.006985778,0.0005718726,0.05434081,0,0,0,0.1581068,1.11065,0.1891703,0.05533525,0.001551389,8.53118E-05,0.0006478077,0.002104013,0.002306804,1,0,-80.09637,"NAN",1,0,960,0.4837345,162.6799,10.4877,16.78108,0,0,29.10794,29.1081,1,1,21.88965,9.542916
"2023-03-15 11:04:04.2",280,21,0,100,69.88524,0.7680961,0,30.00013,-0.9999528,73.49317,71.33585,0.02392368,22.44759,22.41414,2.273427,2.987576,2.234404,53.97781,42.93716,-19.99987,768.3923,12325,52.62416,49.28229,98.22202,97.68919,-26.99986,863.957,12665,1,1,168.7762,108.5743,400.0026,400.0331,0.3938188,0.4568645,0.5506862,23.33118,11.76484,0,0.1050187,0.0007615571,0,0.01076351,0.0002317496,0.0002284188,0.0002807687,1.250975E-05,0.000589831,0.0006413445,0.0002818175,0.001891351,0.002161483,0.02687457,0.03357132,0.0005005694,0.04538563,0,0.003573047,0.003317167,0.004820617,0.005264763,0.0004569091,0.04611705,0,0,0,0.16063,0.1015096,0.01924958,0.06084556,4.671952E-05,8.038442E-05,0.0005540671,0.002207399,0.002208856,1,0,-78.78074,"NAN",1,0,960,0.4607094,162.4456,10.46978,16.78669,0,0,29.2318,29.21444,1,1,21.98832,9.539824
"2023-03-15 11:10:44.2",300,26,4,100,1017.901,11.20691,0,30.00067,-0.999957,73.494,71.33658,0.02392431,22.51945,22.48729,2.278871,2.981563,2.230979,53.84674,42.87549,-19.99987,769.7274,12325,41.2268,35.13759,77.22443,70.53767,-26.99988,865.233,12650,1,1,169.7601,0.2284871,401.4412,399.8553,0.265359,0.467985,0.5506852,23.37901,11.76429,0,0.7744534,0.00890617,0,0.0111622,0.000189438,0.000189171,0.0002324234,1.156537E-05,0.0006936381,0.0005974683,0.0002292927,0.001058271,0.001218077,0.0208997,0.02440935,0.0005064985,0.04839586,0,0.007883818,0.009387362,0.01503954,0.01836908,0.0004974357,0.04983604,0,0,0,0.1011331,0.05471177,0.08003101,0.4736732,0.01282584,0.0005169134,0.0005757163,0.002091713,0.00222432,1,0,-79.6029,"NAN",1,0,960,0.4969033,162.0803,10.4782,16.77138,0,0,29.31074,29.29911,1,1,22.08395,9.536903
"2023-03-15 11:17:24.2",320,10,0,100,432.7262,4.717577,0,29.9996,-0.9999542,73.49516,71.33762,0.02392254,22.58753,22.55771,2.284378,2.9809,2.23464,53.83076,42.93965,-19.99983,771.0896,12325,47.92577,43.38049,89.56436,86.41023,-26.99987,866.5753,12666,1,1,170.4953,47.02557,400.0192,400.0398,0.3650863,0.4647887,0.5510731,23.42719,11.76607,0,0.2775748,0.002934981,0,0.01245049,0.0002429952,0.0002231334,0.0002295052,1.238111E-05,0.0005113706,0.0005574266,0.0002952637,0.001168419,0.001336504,0.02255173,0.02462372,0.0005165912,0.04865015,0,0.003583995,0.003727139,0.007197729,0.007441816,0.0004725614,0.04906658,0,0,0,0.1031975,0.1129967,0.0335956,0.3654627,0.0001524352,0.0005188721,0.0006406612,0.002162316,0.002110447,1,0,-79.11848,"NAN",1,0,960,0.4661068,162.0043,10.49329,16.76834,0,0,29.42691,29.39487,1,1,22.16754,9.54093
"2023-03-15 11:24:04.2",340,12,0,100,434.1985,4.733086,0,30.00115,-0.9999577,73.49625,71.33864,0.02392383,22.65263,22.62414,2.289924,2.977522,2.234381,53.77633,42.92648,-19.99985,772.4444,12325,47.89302,43.35826,89.5098,86.36397,-26.9999,867.9009,12663,1,1,170.126,45.19949,399.9279,399.9923,0.3649572,0.4646417,0.5515943,23.47443,11.76618,0,0.2060492,0.002063433,0,0.01012906,0.0002402681,0.0002649478,0.0002932666,1.234848E-05,0.0004024561,0.0005001631,0.0002917425,0.002979452,0.003221349,0.03334436,0.04148108,0.0004557294,0.04385664,0,0.003793394,0.003911035,0.006273126,0.007835907,0.0005120696,0.05203762,0,0,0,0.1419438,0.7588937,0.08603033,0.03449623,0.0007835699,3.327699E-05,0.0005189992,0.002472419,0.002097256,1,0,-78.37457,"NAN",1,0,960,0.4744279,162.2594,10.48259,16.76716,0,0,29.4926,29.46293,1,1,22.25113,9.544598
"2023-03-15 11:30:44.2",360,20,0,100,1.880782,0.01743041,0,30.00078,-0.9999458,73.49717,71.33948,0.02392671,22.71796,22.68943,2.295408,2.977628,2.238304,53.78479,42.98561,-19.99984,773.8207,12325,53.53355,50.50497,99.89017,100.0197,-26.99982,869.2639,12666.7,1,1,168.7093,98.66431,400.0011,400.1403,0.3892191,0.4594304,0.5518538,23.52338,11.76648,0,0.5723075,0.006218399,0,0.01020758,0.0002488766,0.0002003843,0.0002611868,1.107907E-05,0.0005830745,0.0004830158,0.0003020355,0.002331274,0.00240806,0.02958896,0.03433262,0.0005161348,0.05310924,0,0.008546121,0.01058411,0.01569731,0.01910602,0.0004970474,0.05154184,2.491987,0,0,0.1870608,0.0949574,0.02410788,0.3276983,5.647648E-05,0.0003643878,0.000525309,0.001911458,0.0022,1,0,-77.78925,"NAN",1,0,960,0.4612202,161.8089,10.48319,16.76552,0,0,29.58746,29.55527,1,1,22.33473,9.542452
"2023-03-15 11:37:24.2",380,23,0,100,326.3603,3.588616,0,29.99934,-0.9999465,73.49816,71.34036,0.02392639,22.7796,22.75214,2.301027,2.975579,2.237682,53.74746,42.96638,-19.99988,775.1972,12325,49.22731,44.98862,91.97381,89.47657,-26.99989,870.5943,12666,1,1,168.6864,144.1829,400.0025,400.0712,0.4058521,0.4543987,0.5528376,23.56996,11.76407,0,0.2252809,0.002213651,0,0.01074332,0.0002616739,0.0002971738,0.0003196504,1.219503E-05,0.000463972,0.0004804632,0.0003168038,0.002536023,0.002962906,0.03034506,0.04037702,0.0004994521,0.0503851,0,0.004707007,0.005090879,0.005932462,0.007231146,0.0004561091,0.04486921,0,0,0,0.1833005,0.1147463,0.02140655,0.1733655,5.116216E-05,0.000192272,0.0005466828,0.001932523,0.002289035,1,0,-79.68643,"NAN",1,0,960,0.465454,162.1501,10.46926,16.77886,0,0,29.68417,29.61966,1,1,22.41775,9.544614
"2023-03-15 11:44:04.2",400,2,0,100,295.7789,3.267012,0,30.00073,-0.999957,73.49921,71.34121,0.02392601,22.83779,22.80886,2.306601,2.975208,2.239753,53.73528,42.99687,-19.99987,776.5775,12325,49.62614,45.49555,92.69902,90.42896,-26.99984,871.9339,12662.29,1,1,163.2346,52.62569,399.9984,399.9247,0.3701834,0.4823448,0.5529479,23.61259,11.76656,0,1.182635,0.01319148,0,0.01081437,0.000229467,0.0002048581,0.0002395049,1.262246E-05,0.000406681,0.0003426043,0.0002766926,0.002373544,0.002246095,0.0281564,0.03323973,0.0005368834,0.05109969,0,0.01557305,0.01908512,0.02727863,0.03662505,0.000480295,0.04608806,2.710332,0,0,0.1133166,0.2092511,0.01989473,0.3486295,4.735221E-05,0.0004229309,0.0005579071,0.00198802,0.002157008,1,0,-79.22311,"NAN",1,0,960,0.4571383,161.6161,10.48813,16.76419,0,0,29.74878,29.68433,1,1,22.4748,9.54118
"2023-03-15 11:50:44.2",420,11,0,100,395.1693,4.316951,0,29.9997,-0.9999444,73.49989,71.3418,0.02393126,22.89303,22.8613,2.312137,2.974981,2.240979,53.69924,43.01739,-19.99989,777.9489,12325,48.35712,43.94383,90.35434,87.4725,-26.99983,873.2632,12667,1,1,171.4672,57.36028,400.0262,400.0344,0.3727813,0.465459,0.5530703,23.65317,11.76661,0,0.2743307,0.002423845,0,0.01053802,0.000233566,0.0002249341,0.0002958314,1.327232E-05,0.0005990259,0.0004980971,0.0002818928,0.003244455,0.003598915,0.0352755,0.04919548,0.0005115922,0.04940558,0,0.005851395,0.005361168,0.006480601,0.006413522,0.0005272774,0.04920384,0,0,0,0.1158177,0.3137245,0.04347016,0.05448756,0.0003603711,7.973864E-05,0.0005389712,0.002130468,0.002339587,1,0,-77.29948,"NAN",1,0,960,0.4404647,161.1705,10.47779,16.75401,0,0,29.81509,29.74878,1,1,22.53128,9.544205
"2023-03-15 11:57:24.2",440,13,0,100,393.1363,4.295526,0,29.99977,-0.9999431,73.50082,71.34229,0.02393136,22.94173,22.90841,2.317398,2.974269,2.242813,53.67405,43.05142,-19.99983,779.2968,12325,48.37923,43.97641,90.38966,87.54449,-26.99986,874.5645,12665,1,1,171.1546,27.47784,399.9231,400.0041,0.3531845,0.4675936,0.5528249,23.69241,11.76698,0,0.265569,0.001741875,0,0.01171755,0.000275115,0.0002167795,0.0002786868,1.188556E-05,0.0003732921,0.0004521149,0.0003339627,0.003233915,0.003472864,0.05855321,0.06421488,0.0005191783,0.05290313,0,0.004258417,0.003937996,0.006778667,0.006099654,0.0004596928,0.04788004,0,0,0,0.1648392,1.099124,0.1856174,0.0463781,0.001525689,8.465521E-05,0.0005991419,0.002243953,0.002230935,1,0,-79.02915,"NAN",1,0,960,0.4488766,161.1311,10.46148,16.74934,0,0,29.87917,29.81351,1,1,22.58776,9.543995
"2023-03-15 12:04:04.2",460,21,0,100,69.61398,0.7651081,0,29.99957,-0.999957,73.50179,71.34306,0.02393436,22.9792,22.94167,2.322635,2.974008,2.244684,53.66784,43.08025,-19.99987,780.6013,12325,52.60835,49.2915,98.16688,97.70712,-26.99986,875.8632,12671,1,1,168.6362,108.1655,400.0036,400.0249,0.3946284,0.4584996,0.5534232,23.72266,11.7658,0,0.1086501,0.0007779435,0,0.01042418,0.000250744,0.0002212763,0.0002290325,1.078371E-05,0.0002645101,0.0002196583,0.0003014923,0.002992385,0.002898375,0.03479047,0.03730359,0.0004753171,0.04833541,0,0.004780291,0.00434459,0.005570904,0.005202246,0.0005279324,0.05251512,0,0,0,0.1941836,0.1176336,0.02126628,0.05381386,5.297323E-05,6.448364E-05,0.0005344269,0.002081525,0.002193189,1,0,-77.10812,"NAN",1,0,960,0.4602968,161.0696,10.38907,16.74776,0,0,29.94336,29.86538,1,1,22.66159,9.543602
"2023-03-15 12:10:44.2",480,26,4,100,1005.479,11.07344,0,30.00002,-0.9999632,73.50262,71.34383,0.02393272,23.01245,22.97488,2.327703,2.968647,2.241363,53.58409,43.00262,-19.99991,781.8792,12325,41.24998,35.32159,77.26528,70.88311,-26.9999,877.0745,12645,1,1,169.4976,0.1954241,401.2554,399.8608,0.2580687,0.4694938,0.5532675,23.74854,11.7654,0,0.8207252,0.009945022,0,0.01176019,0.0002451886,0.0002535289,0.0002665889,1.168464E-05,0.0002307295,0.0004256369,0.0002949481,0.003083127,0.00307525,0.03524398,0.04104387,0.0004858578,0.0463911,0,0.008711611,0.008657468,0.01446141,0.01612278,0.0005567838,0.0545892,0,0,0,0.08889525,0.02350385,0.100862,0.4750756,0.0112644,0.0005208624,0.0006052762,0.00196153,0.002258454,1,0,-78.29008,"NAN",1,0,960,0.4421691,161.4449,10.35346,16.77437,0,0,30.00517,29.91086,1,1,22.69847,9.546516
"2023-03-15 12:17:24.2",500,10,0,100,438.6548,4.782829,0,29.99937,-0.9999548,73.50335,71.3446,0.02393686,23.05028,23.01297,2.332719,2.970095,2.244088,53.61375,43.04592,-19.99984,783.147,12325,47.79724,43.29662,89.33859,86.2281,-26.99985,878.3164,12665,1,1,170.204,47.03263,400.0234,400.0441,0.3660338,0.465772,0.5532899,23.77783,11.76737,0,0.3414347,0.003161708,0,0.01246504,0.000239534,0.0002431145,0.0003160936,1.384492E-05,0.000386953,0.0003515661,0.0002905425,0.00314472,0.003290866,0.03762218,0.04394897,0.0005012998,0.04740355,0,0.005603003,0.005266163,0.007374861,0.008753873,0.0005178432,0.05086778,0,0,0,0.0972462,0.1163367,0.03852122,0.3641253,0.0001527471,0.0005078728,0.0006443625,0.001962276,0.002143129,1,0,-77.21844,"NAN",1,0,960,0.4700712,162.0908,10.39363,16.788,0,0,30.04108,29.94336,1,1,22.72879,9.550758
"2023-03-15 12:24:04.2",520,12,0,100,430.8107,4.697309,0,29.99971,-0.9999653,73.50405,71.34541,0.02393199,23.09148,23.05498,2.337654,2.966628,2.242721,53.56055,43.01428,-19.99986,784.3582,12325,47.88681,43.41028,89.5134,86.44228,-26.99985,879.524,12665,1,1,170.0447,45.08165,399.9315,399.9928,0.365681,0.4654823,0.5542127,23.80756,11.76762,0,0.2749105,0.002280029,0,0.01043966,0.0002651432,0.0002509259,0.0002953285,1.168715E-05,0.0003239088,0.0003983168,0.0003204999,0.002753543,0.002816751,0.03040769,0.03969686,0.0005182293,0.05271661,0,0.005380559,0.004341302,0.006478541,0.006066244,0.0004803896,0.04931575,0,0,0,0.1513275,0.7954865,0.1000893,0.04003058,0.0007668866,4.139084E-05,0.0005351225,0.002011053,0.002096094,1,0,-80.62107,"NAN",1,0,960,0.4565552,161.9201,10.41113,16.77944,0,0,30.07399,29.97654,1,1,22.78432,9.550914
"2023-03-15 12:30:44.2",540,20,0,100,1.782606,0.01771755,0,30.00048,-0.9999597,73.50489,71.34644,0.02393701,23.13294,23.09834,2.342352,2.968832,2.245355,53.59073,43.05779,-19.99988,785.5889,12325,53.5399,50.49046,99.91682,99.97498,-26.99987,880.7283,12673,1,1,168.5685,98.60023,400.001,400.1413,0.3900276,0.4602901,0.5544235,23.83912,11.76726,0,0.5487151,0.006220167,0,0.01104388,0.000213928,0.0002562733,0.0002691447,1.370046E-05,0.00035478,0.0003840042,0.000259849,0.002026337,0.001930006,0.02915969,0.03136239,0.0004972448,0.0507815,0,0.00827168,0.01061851,0.01509452,0.01984204,0.000500357,0.0512719,0,0,0,0.1631761,0.1093405,0.02098701,0.3087576,4.96204E-05,0.0003486825,0.0005645561,0.002057672,0.00239957,1,0,-79.55762,"NAN",1,0,960,0.4550189,161.4781,10.4033,16.76829,0,0,30.12923,30.02137,1,1,22.83845,9.546296
"2023-03-15 12:37:24.2",560,23,0,100,321.8807,3.539483,0,30.00042,-0.9999632,73.50529,71.34712,0.0239391,23.17472,23.14176,2.347158,2.966722,2.244642,53.54105,43.04137,-19.99987,786.7977,12325,49.26756,45.06953,92.05456,89.61819,-26.9999,881.8931,12674,1,1,168.5847,143.7451,400.0027,400.0686,0.4066209,0.4560631,0.5545338,23.86977,11.76478,0,0.2093589,0.002040667,0,0.01010971,0.0002353614,0.0002119524,0.0002563513,1.229031E-05,0.0004141525,0.0003840394,0.000284835,0.002567184,0.002727849,0.03136341,0.0393018,0.0004837944,0.04756084,0,0.004195533,0.004342733,0.006022641,0.006801818,0.0005217727,0.05134095,0,0,0,0.1969075,0.1269475,0.02422012,0.163115,5.69943E-05,0.0001811632,0.0005210786,0.00183138,0.002173959,1,0,-80.57794,"NAN",1,0,960,0.4201217,161.3773,10.35852,16.76736,0,0,30.17192,30.07367,1,1,22.86777,9.549841
"2023-03-15 12:44:04.2",580,2,0,100,295.4228,3.262851,0,30.00039,-0.9999604,73.506,71.34808,0.02393348,23.21555,23.18352,2.351918,2.966214,2.245976,53.52474,43.06094,-19.99987,787.9838,12325,49.61843,45.51177,92.69297,90.45193,-26.99982,883.0673,12663,1,1,163.1315,51.93492,400.0044,399.9121,0.3705913,0.4829329,0.5550719,23.90371,11.76758,0,1.133129,0.01250711,0,0.01118569,0.000265509,0.0001966813,0.0002437047,1.137737E-05,0.0004315166,0.0004337885,0.0003205276,0.001714505,0.001854983,0.03009211,0.03476141,0.0004723841,0.04601117,0,0.01514469,0.01884005,0.02687381,0.03588736,0.0005051803,0.0491578,0,0,0,0.1222952,0.1890788,0.01900957,0.3649899,6.934542E-05,0.00041882,0.000576105,0.00262392,0.002433073,1,0,-77.75368,"NAN",1,0,960,0.4352999,161.7607,10.35066,16.7854,0,0,30.20731,30.10635,1,1,22.89728,9.548464
"2023-03-15 12:50:44.2",600,11,0,100,394.3727,4.307591,0,29.99966,-0.9999604,73.50663,71.34892,0.02393648,23.25485,23.22283,2.356572,2.965375,2.246622,53.48082,43.07616,-19.99988,789.1579,12325,48.34766,43.97774,90.3408,87.53456,-26.99988,884.2017,12663,1,1,171.2588,57.41695,400.0248,400.0193,0.3737184,0.4639356,0.5544621,23.93309,11.76747,0,0.4357679,0.004696354,0,0.009982004,0.0002622244,0.0001758087,0.0002489108,1.303337E-05,0.0002987489,0.0003331224,0.0003160338,0.001807747,0.001985299,0.02663025,0.03239568,0.0005549054,0.05591219,0,0.002886962,0.002878061,0.005579523,0.006020061,0.0004532709,0.04412905,0,0,0,0.1152581,0.3134201,0.04542981,0.0373395,0.0003623105,4.399428E-05,0.0005157512,0.001892068,0.002254561,1,0,-79.63933,"NAN",1,0,960,0.4798404,161.4481,10.37439,16.76832,0,0,30.27011,30.1392,1,1,22.95329,9.545714
"2023-03-15 12:57:24.2",620,13,0,100,393.062,4.295327,0,29.99956,-0.9999632,73.50727,71.34971,0.02394014,23.29285,23.26295,2.361165,2.96308,2.24721,53.43333,43.08594,-19.99993,790.3101,12325,48.35567,43.99803,90.35091,87.5837,-26.99988,885.3247,12666,1,1,170.9939,25.01047,399.9442,400.0069,0.3522616,0.4694954,0.5552801,23.96445,11.76787,0,0.1799693,0.001859043,0,0.009659226,0.0002270266,0.0002427583,0.0002718828,1.380215E-05,0.0003633221,0.0004247126,0.000273078,0.001403256,0.001389928,0.02441404,0.02575692,0.0004924302,0.04883458,0,0.002430165,0.002619199,0.005277189,0.005406874,0.0004709047,0.04674681,0,0,0,0.1648352,1.148129,0.2713902,0.04881929,0.001728483,9.692372E-05,0.0004941417,0.00173331,0.002323282,1,0,-77.23574,"NAN",1,0,960,0.4518256,160.7697,10.37219,16.73567,0,0,30.30298,30.19581,1,1,22.98074,9.549244
"2023-03-15 13:04:04.2",640,21,0,100,68.19228,0.7518128,0,29.99919,-0.9999639,73.508,71.35048,0.02393948,23.33124,23.30079,2.365599,2.961743,2.248693,53.41077,43.11073,-19.9999,791.4587,12325,52.6305,49.32769,98.20901,97.78183,-26.99989,886.4421,12667,1,1,168.485,107.8805,400.0021,400.027,0.3956506,0.4615467,0.5556754,23.99645,11.76708,0,0.08534669,0.000702468,0,0.009486332,0.0002482259,0.0002335075,0.0002294606,1.058963E-05,0.0003794291,0.0003531497,0.0002995906,0.001608351,0.001646723,0.02669021,0.02705451,0.0004754043,0.0457912,0,0.00277624,0.002622984,0.004881223,0.006456377,0.0004784943,0.04662044,0,0,0,0.1951623,0.102571,0.02166001,0.04653198,5.447507E-05,5.124337E-05,0.0004852257,0.002390364,0.002358365,1,0,-78.43299,"NAN",1,0,960,0.4458869,160.9509,10.335,16.75256,0,0,30.33617,30.20509,1,1,23.01024,9.551362
"2023-03-15 13:10:44.2",660,26,4,100,997.4567,10.98637,0,29.99988,-0.9999555,73.50864,71.35124,0.02393942,23.3678,23.33842,2.370055,2.956811,2.244532,53.32816,43.0256,-19.9999,792.5756,12325,41.26923,35.45316,77.29487,71.13992,-26.99991,887.5023,12647,1,1,169.0286,0.1685356,400.7404,399.8622,0.2381105,0.4727508,0.5550573,24.02365,11.76593,0,0.7729853,0.008931293,0,0.01218068,0.0002666973,0.0002523602,0.0002688663,1.390568E-05,0.0003693954,0.0003800023,0.0003228882,0.002295211,0.001983658,0.03202378,0.02778164,0.0004943904,0.04649804,0,0.00894883,0.008840221,0.01555959,0.01749844,0.0004604029,0.04767506,0,0,0,0.08705272,0.008620533,0.100653,0.4568375,0.006776353,0.0005014723,0.0006278262,0.001909557,0.002146454,1,0,-76.95116,"NAN",1,0,960,0.4815032,161.4662,10.30827,16.76677,0,0,30.3915,30.27011,1,1,23.06206,9.554586
"2023-03-15 13:17:24.2",680,10,0,100,436.2941,4.760986,0,30.0001,-0.999966,73.50951,71.35218,0.02394188,23.40342,23.37168,2.374394,2.957283,2.247458,53.34042,43.07402,-19.99991,793.6838,12325,47.79475,43.34791,89.32027,86.3371,-26.99989,888.5919,12665,1,1,170.3244,46.38337,400.0193,400.0449,0.3667784,0.4690424,0.5551698,24.05366,11.7683,0,0.255647,0.002837429,0,0.01224281,0.0002148459,0.0002191377,0.0002389428,1.402386E-05,0.0003332537,0.0002989634,0.0002602015,0.001697692,0.001441862,0.0303538,0.02753533,0.0004574572,0.046147,0,0.003599516,0.003871385,0.007027047,0.00754892,0.0004722612,0.04720761,0,0,0,0.109101,0.1201586,0.03781085,0.3582028,0.0001442921,0.0004945507,0.0006294322,0.001914395,0.002161279,1,0,-77.11414,"NAN",1,0,960,0.4680667,162.0797,10.29877,16.78761,0,0,30.43097,30.30298,1,1,23.06822,9.557109
"2023-03-15 13:24:04.2",700,12,0,100,430.1566,4.69373,0,29.99965,-0.9999632,73.50997,71.35268,0.02394628,23.4359,23.40417,2.37865,2.95633,2.247855,53.318,43.07484,-19.99988,794.7684,12325,47.87479,43.45068,89.45657,86.51736,-26.99988,889.6442,12667,1,1,169.9639,44.28738,399.9321,399.9908,0.3663082,0.4690469,0.5555352,24.07991,11.76799,0,0.21018,0.002210445,0,0.01096134,0.0002447929,0.0002700644,0.0002770647,1.212885E-05,0.0002745167,0.0002848818,0.0002958251,0.001796994,0.001818433,0.02908481,0.03396935,0.0004855591,0.04820183,0,0.003233587,0.003262643,0.005701829,0.007324666,0.0004950159,0.04422773,0,0,0,0.1293951,0.7740521,0.08682734,0.03812983,0.0007278734,3.316902E-05,0.0005655799,0.001820229,0.002291251,1,0,-77.57346,"NAN",1,0,960,0.4359064,161.6269,10.30202,16.78772,0,0,30.46768,30.33584,1,1,23.11702,9.553569
"2023-03-15 13:30:44.2",720,20,0,100,1.348181,0.01462537,0,30.00008,-0.999966,73.51061,71.35342,0.02394425,23.4693,23.43814,2.382838,2.957037,2.250206,53.32959,43.12103,-19.99989,795.8279,12325,53.55719,50.51322,99.90675,100.0191,-26.99986,890.698,12666,1,1,168.4252,98.57777,400.0013,400.0969,0.3922462,0.464362,0.5558537,24.10888,11.7679,0,0.5577161,0.006066894,0,0.01245304,0.0002430443,0.0002448328,0.0002715432,1.46689E-05,0.0004403489,0.000339716,0.0002942223,0.003278177,0.003849928,0.06416872,0.0720783,0.0005732054,0.05815559,0,0.008211695,0.01089522,0.0154214,0.02024693,0.0005021177,0.0499699,0,0,0,0.1853783,0.1092022,0.01995572,0.1607884,4.791988E-05,0.0002139747,0.0006392471,0.002067285,0.002327806,1,0,-78.2851,"NAN",1,0,960,0.4602286,161.59,10.29967,16.78564,0,0,30.49228,30.35007,1,1,23.12847,9.550117
"2023-03-15 13:37:24.2",740,23,0,100,316.6194,3.482173,0,29.99956,-0.9999743,73.5116,71.35454,0.0239428,23.50197,23.46948,2.386947,2.955316,2.249081,53.28465,43.09669,-19.9999,796.8719,12325,49.31879,45.17489,92.10844,89.81506,-26.9999,891.6943,12665,1,1,168.4609,143.3858,400.0018,400.0581,0.4076691,0.4596262,0.5561504,24.13974,11.76581,0,0.2237327,0.002001343,0,0.009174492,0.0002449306,0.0001692559,0.0002668798,1.180237E-05,0.0003896431,0.0003507748,0.0002945032,0.001897219,0.002154356,0.03479775,0.04163853,0.0004872428,0.04950028,0,0.0029713,0.00316297,0.006145588,0.006461986,0.0004576842,0.0458549,0,0,0,0.1957587,0.1369107,0.02322011,0.1356773,5.808565E-05,0.0001372182,0.0004714084,0.002075757,0.002168373,1,0,-80.24955,"NAN",1,0,960,0.419981,160.8801,10.28263,16.76219,0,0,30.53378,30.39156,1,1,23.17641,9.549448
"2023-03-15 13:44:04.2",760,2,0,100,295.2657,3.259512,0,29.99901,-0.9999597,73.51229,71.35516,0.02394435,23.53036,23.49765,2.390751,2.954829,2.249527,53.27156,43.1026,-19.99987,797.8979,12325,49.60606,45.536,92.6316,90.49115,-26.99987,892.692,12667,1,1,163.0022,51.54897,400.0089,399.9068,0.3715368,0.4862381,0.5568733,24.16995,11.7689,0,1.114401,0.01247481,0,0.01061932,0.0002741514,0.0002589392,0.000320465,1.24197E-05,0.0004252628,0.0002940931,0.0003298424,0.001836454,0.001752607,0.03586601,0.03384371,0.0004814285,0.0476281,0,0.01511777,0.01871094,0.02702824,0.03500096,0.0004786753,0.04562882,0,0,0,0.1101438,0.1841275,0.02029388,0.3526396,9.629806E-05,0.0003915138,0.0005558859,0.001883123,0.00217886,1,0,-78.73424,"NAN",1,0,960,0.4606217,161.2913,10.2252,16.75773,0,0,30.56689,30.41262,1,1,23.17969,9.554653
"2023-03-15 13:50:44.2",780,11,0,100,394.8054,4.308784,0,29.99975,-0.9999639,73.51281,71.35571,0.02394602,23.55199,23.51948,2.394552,2.954407,2.250018,53.23919,43.11804,-19.99987,798.878,12325,48.32203,43.98682,90.26367,87.53761,-26.99991,893.6339,12661,1,1,171.1829,57.27251,400.0314,400.0234,0.3747471,0.4674854,0.556269,24.1903,11.76797,0,0.1816997,0.002017271,0,0.01258911,0.0002381162,0.0001767876,0.0002523807,1.273319E-05,0.0002671182,0.0002751594,0.0002860562,0.001567789,0.001550752,0.03022505,0.02903541,0.0004603375,0.04427435,0,0.003303618,0.002891395,0.006346786,0.00555785,0.0004697097,0.04686076,0,0,0,0.1073023,0.3715799,0.05085254,0.03519119,0.0004167445,4.630565E-05,0.000644739,0.002174068,0.002086845,1,0,-77.19669,"NAN",1,0,960,0.4683293,161.7242,10.212,16.77171,0,0,30.59931,30.43466,1,1,23.20905,9.559134
"2023-03-15 13:57:24.2",800,13,0,100,392.9716,4.288439,0,29.9994,-0.999966,73.51346,71.35626,0.02394978,23.57449,23.54055,2.398216,2.954405,2.250692,53.22702,43.12799,-19.9999,799.8219,12325,48.3462,44.01852,90.30135,87.59633,-26.9999,894.5533,12665,1,1,171.0229,55.09417,400.0041,400.0243,0.3737777,0.4674869,0.5563887,24.21538,11.76894,0,0.1756997,0.001953995,0,0.00960368,0.0002422561,0.0001938875,0.0002608082,1.184603E-05,0.0004287761,0.0002761079,0.0002938712,0.001552584,0.001263595,0.02410635,0.02238321,0.0005148699,0.05321164,0,0.002981713,0.00287566,0.005363384,0.005847832,0.0004440605,0.04563031,0,0,0,0.3795533,0.3044066,0.07324872,0.04359401,0.0003557274,5.329644E-05,0.0004955034,0.001968523,0.002280322,1,0,-77.88903,"NAN",1,0,960,0.4438139,161.4771,10.17339,16.77438,0,0,30.6,30.46768,1,1,23.22542,9.552518
"2023-03-15 14:04:04.2",820,21,0,100,67.30836,0.7347282,0,30.0007,-0.9999743,73.51386,71.35658,0.02394618,23.59653,23.56371,2.401783,2.954625,2.25335,53.2232,43.17562,-19.99993,800.7388,12325,52.65645,49.35568,98.22182,97.80193,-26.99991,895.4422,12666,1,1,168.4339,107.9255,400.0024,400.0264,0.3965892,0.4618533,0.5564208,24.23097,11.76719,0,0.06645758,0.0007435044,0,0.009917369,0.0002385541,0.0002244766,0.0002389021,1.366102E-05,0.0002430965,0.0002818682,0.000286856,0.001790193,0.001616687,0.03074799,0.03019356,0.0004642164,0.04461966,0,0.002788288,0.002992247,0.005505215,0.006345222,0.0004178858,0.0384223,0,0,0,0.1955496,0.1114703,0.02006602,0.04501298,4.695967E-05,6.139439E-05,0.0005069133,0.002036945,0.002211199,1,0,-77.03072,"NAN",1,0,960,0.4483279,161.4656,10.16214,16.77717,0,0,30.63304,30.47118,1,1,23.23843,9.550504
"2023-03-15 14:10:44.2",840,26,4,100,976.8973,10.75622,0,30.00081,-0.9999729,73.51429,71.35693,0.02394684,23.61733,23.58669,2.405239,2.949921,2.248991,53.13546,43.08594,-19.9999,801.6355,12325,41.45596,35.73373,77.60677,71.65304,-26.99993,896.2673,12650.5,1,1,168.6537,0.1614959,400.3186,399.8558,0.2231209,0.4733211,0.556755,24.25163,11.76648,0,0.7548137,0.008660969,0,0.01375207,0.0002399947,0.0002542283,0.0002554707,1.343014E-05,0.0002647091,0.0003343454,0.000288511,0.001395677,0.001436525,0.02770284,0.02856709,0.0005333142,0.05186365,0,0.007292699,0.008249405,0.01376727,0.01678896,0.0004893749,0.04842239,2.598076,0,0,0.08782697,0.008952633,0.0964254,0.4547855,0.003110467,0.0004884523,0.0006994348,0.001567068,0.002074338,1,0,-80.11748,"NAN",1,0,960,0.4335265,161.0347,10.16097,16.77009,0,0,30.65193,30.5007,1,1,23.26554,9.550297
"2023-03-15 14:17:24.2",860,10,0,100,430.6757,4.695926,0,29.99867,-0.999966,73.51515,71.35764,0.02395079,23.64167,23.61126,2.408666,2.951287,2.251879,53.16383,43.13159,-19.99992,802.4988,12325,47.85817,43.45147,89.397,86.4983,-26.99994,897.1279,12665,1,1,170.1309,46.39401,400.0201,400.0502,0.3675943,0.4696115,0.5567873,24.27188,11.76873,0,0.2659674,0.002825396,0,0.009608124,0.0002496961,0.000279794,0.0002640077,1.377433E-05,0.0003854268,0.0003127594,0.0003004011,0.002500094,0.002630107,0.05242346,0.05570589,0.0005110075,0.0513938,0,0.003978465,0.003648969,0.009120974,0.008541975,0.0004812714,0.04905469,0,0,0,0.1064736,0.116063,0.03641894,0.3525245,0.0001260417,0.0004666417,0.0005121838,0.002164402,0.002004592,1,0,-77.47024,"NAN",1,0,960,0.4143334,160.6692,10.16103,16.77318,0,0,30.66638,30.53176,1,1,23.29462,9.54994
"2023-03-15 14:24:04.2",880,12,0,100,428.6466,4.675758,0,29.99923,-0.9999729,73.51553,71.35793,0.02395427,23.66935,23.63687,2.412043,2.949097,2.252085,53.1265,43.12615,-19.99991,803.3484,12325,47.87711,43.47935,89.43771,86.54601,-26.99994,897.9553,12668,1,1,169.8451,44.64,399.9389,399.9964,0.3673957,0.4694901,0.5571553,24.29351,11.76875,0,0.2112597,0.0021234,0,0.01095119,0.0002457499,0.0002331424,0.0002442422,1.301991E-05,0.0003247196,0.0002795801,0.0002965505,0.002294476,0.002222772,0.04856224,0.04812751,0.0004612192,0.04556169,0,0.003055234,0.002914142,0.007406588,0.00708963,0.000493415,0.0457468,0,0,0,0.1259075,0.6873834,0.08045327,0.03797875,0.0006682336,5.244349E-05,0.0005569187,0.002084823,0.002077027,1,0,-79.17548,"NAN",1,0,960,0.4522554,161.3757,10.1609,16.77717,0,0,30.69961,30.53378,1,1,23.29504,9.552518
"2023-03-15 14:30:44.2",900,20,0,100,1.545118,0.01763735,0,29.99977,-0.9999681,73.51659,71.35889,0.02394956,23.69507,23.66341,2.415302,2.950095,2.254778,53.14413,43.16756,-19.99992,804.1839,12325,53.56392,50.51196,99.89195,99.9814,-26.99989,898.7915,12672,1,1,168.3328,98.09165,400.0032,400.0855,0.3930631,0.4636074,0.5572591,24.31682,11.76885,0,0.5439852,0.005955402,0,0.01080703,0.0002642368,0.0002436221,0.0002524545,1.334574E-05,0.0003079911,0.0003418076,0.0003156199,0.002399568,0.002176366,0.04763713,0.04649051,0.0004972189,0.04905331,0,0.008342359,0.009896824,0.01561126,0.01913163,0.0005128445,0.05076526,0,0,0,0.2070012,0.1014971,0.02054393,0.1651233,4.955376E-05,0.0001889973,0.0005544845,0.001950363,0.002313405,1,0,-80.27525,"NAN",1,0,960,0.4629874,160.791,10.18588,16.75707,0,0,30.73155,30.56706,1,1,23.32428,9.549873
"2023-03-15 14:37:24.2",920,23,0,100,312.8219,3.442437,0,29.99682,-0.999975,73.51678,71.35916,0.02395632,23.72086,23.69011,2.418581,2.948889,2.254034,53.1234,43.14697,-19.99995,805.0034,12325,49.35348,45.24252,92.15498,89.91327,-26.99991,899.5726,12673,1,1,168.3808,142.9588,400.0025,400.0483,0.4082448,0.4594791,0.5577748,24.33766,11.76632,0,0.1714682,0.001915452,0,0.01240794,0.0002576607,0.0002721415,0.0002754372,1.514987E-05,0.0002765222,0.0002494171,0.000308905,0.002401083,0.002285451,0.05123239,0.05037278,0.0005380699,0.05274029,0,0.003390777,0.00377412,0.007016042,0.008605759,0.0004412214,0.04319591,0,0,0,0.1662167,0.09407125,0.01833494,0.1488091,4.889667E-05,0.0001626082,0.0006678668,0.001821966,0.002241888,1,0,-78.67944,"NAN",1,0,960,0.4502071,161.145,10.25715,16.74413,0,0,30.73288,30.59933,1,1,23.35139,9.554578
"2023-03-15 14:44:04.2",940,2,0,100,294.8319,3.259571,0,30.00021,-0.9999722,73.51736,71.3597,0.02394962,23.74691,23.71667,2.421828,2.948923,2.254753,53.12357,43.15158,-19.99994,805.8094,12325,49.59886,45.54749,92.5994,90.47841,-26.99989,900.3575,12668,1,1,162.9231,51.05785,400.0103,399.9097,0.3720455,0.4867672,0.5580489,24.35805,11.76899,0,1.112481,0.01250919,0,0.01136925,0.000274043,0.0002614423,0.0003248121,1.383104E-05,0.0003436287,0.0003638428,0.0003302332,0.002395724,0.002299167,0.05063533,0.04854591,0.0005074245,0.04897332,0,0.01494257,0.01784864,0.02748027,0.03386969,0.0004503154,0.04470238,0,0,0,0.1015594,0.1755794,0.02000977,0.3485936,9.07497E-05,0.0003919275,0.000587303,0.002209714,0.002166404,1,0,-79.83251,"NAN",1,0,960,0.4480367,161.1887,10.27646,16.7515,0,0,30.7662,30.6,1,1,23.35154,9.551441
"2023-03-15 14:50:44.2",960,11,0,100,394.3948,4.30772,0,29.99995,-0.9999702,73.51785,71.36021,0.02394997,23.77191,23.74297,2.425025,2.948596,2.254002,53.11318,43.12955,-19.99998,806.6021,12325,48.30579,43.9968,90.23065,87.52037,-26.99992,901.1279,12667,1,1,171.1856,57.18296,400.0274,400.0234,0.3754958,0.4678275,0.5575529,24.37977,11.76884,0,0.4969612,0.005468546,0,0.01133874,0.000265769,0.0001843338,0.0002608728,1.355682E-05,0.0002687578,0.0003272508,0.0003203446,0.002935182,0.002999189,0.06462452,0.06606092,0.0004798412,0.04966497,0,0.003507568,0.003257007,0.007153786,0.007368958,0.0004966851,0.04802255,0,0,0,0.1274839,0.3244434,0.04455606,0.03903587,0.0003818044,5.278821E-05,0.0005829319,0.002245288,0.002351491,1,0,-78.59408,"NAN",1,0,960,0.4414796,161.1612,10.26547,16.76308,0,0,30.79371,30.6228,1,1,23.38076,9.545953
"2023-03-15 14:57:24.2",980,13,0,100,392.1234,4.287078,0,29.99989,-0.9999743,73.51833,71.36079,0.02394855,23.79379,23.76619,2.428132,2.947785,2.25531,53.08764,43.15306,-19.99993,807.3713,12325,48.33083,44.02682,90.28059,87.58467,-26.9999,901.8774,12658,1,1,170.8179,26.28391,399.9374,400.0035,0.3550091,0.4692702,0.5577194,24.39944,11.76928,0,0.1891282,0.001698949,0,0.00889849,0.0002739085,0.0001826248,0.0002383579,1.152416E-05,0.000271802,0.0002353657,0.0003296213,0.002149093,0.002141725,0.04579663,0.044673,0.0004861281,0.04755658,0,0.003154827,0.002734526,0.006958962,0.00646216,0.0004538126,0.0413839,0,0,0,0.1467663,1.087826,0.2135563,0.04650564,0.001524186,8.393401E-05,0.0004559472,0.002494842,0.002221398,1,0,-77.24831,"NAN",1,0,960,0.4538057,161.5136,10.26654,16.77182,0,0,30.7995,30.63321,1,1,23.41013,9.547698
"2023-03-15 15:04:04.2",1000,21,0,100,67.04768,0.7393218,0,30.00011,-0.9999736,73.51886,71.36144,0.0239489,23.80752,23.77943,2.431087,2.949139,2.257696,53.10388,43.1938,-19.99994,808.1069,12325,52.65672,49.34907,98.22746,97.75946,-26.9999,902.611,12665,1,1,168.3666,107.7443,400.0037,400.0318,0.3970294,0.4598168,0.5578546,24.41424,11.76772,0,0.06459376,0.0006666048,0,0.01196421,0.0002627,0.0002114696,0.0002261949,1.244225E-05,0.000287423,0.0002324529,0.0003157141,0.001765421,0.001892615,0.03635641,0.0392746,0.0005159021,0.05124819,0,0.002559644,0.002616909,0.005830388,0.006564537,0.0004712735,0.0490911,0,0,0,0.1951595,0.09504811,0.02329685,0.04640429,5.912281E-05,6.690936E-05,0.000612692,0.002306393,0.002142682,1,0,-78.15812,"NAN",1,0,960,0.4433822,161.235,10.26644,16.7706,0,0,30.80085,30.64998,1,1,23.41013,9.547321
"2023-03-15 15:10:44.2",1020,26,4,100,987.1703,10.87457,0,30.00148,-0.9999812,73.5191,71.36182,0.02394972,23.81602,23.78573,2.433821,2.94676,2.254945,53.05017,43.13868,-19.99992,808.8085,12325,41.30739,35.61469,77.33929,71.40593,-26.99998,903.2518,12646,1,1,168.4485,0.1603416,399.9987,399.8514,0.2111275,0.470667,0.5576745,24.42585,11.76676,0,0.7973804,0.009365555,0,0.0111467,0.0002438464,0.0002004881,0.0002547854,1.313439E-05,0.0002688434,0.0002334866,0.0002935565,0.00230753,0.002268766,0.04488932,0.04967887,0.0004862676,0.0467912,0,0.009490218,0.01024556,0.01718866,0.01929043,0.0004842859,0.04419762,0,0,0,0.08008096,0.007888969,0.08983029,0.4790288,0.0003658792,0.0005205028,0.0005724625,0.0008117472,0.002241193,1,0,-77.51392,"NAN",1,0,960,0.4446655,160.9161,10.2495,16.75623,0,0,30.83238,30.64994,1,1,23.41013,9.548406
"2023-03-15 15:17:24.2",1040,10,0,100,433.2472,4.727567,0,29.99912,-0.9999695,73.51919,71.36209,0.02395689,23.82024,23.78666,2.436352,2.949071,2.257862,53.08888,43.19206,-19.99991,809.4587,12325,47.81637,43.41647,89.32234,86.41888,-26.99995,903.8926,12666,1,1,170.226,45.38353,400.0205,400.0428,0.3673597,0.4671209,0.5576376,24.42814,11.76896,0,0.3201184,0.00379177,0,0.009012468,0.0002389452,0.0002176617,0.000270167,1.217566E-05,0.0002257394,0.0002154069,0.0002880068,0.002436772,0.002603036,0.0492933,0.0532412,0.000511649,0.0512946,0,0.003952847,0.004322649,0.008321214,0.00890674,0.0004904208,0.04870553,0,0,0,0.08989107,0.1265799,0.04014167,0.3702871,0.0001495902,0.0005220911,0.0004680258,0.001994638,0.002154618,1,0,-78.54063,"NAN",1,0,960,0.4663011,160.7749,10.21896,16.74517,0,0,30.83305,30.65074,1,1,23.41013,9.552482
"2023-03-15 15:24:04.2",1060,12,0,100,433.6839,4.731587,0,29.99881,-0.9999855,73.51978,71.36284,0.0239567,23.82215,23.78626,2.438537,2.948998,2.258533,53.07502,43.20184,-19.99997,810.0623,12325,47.80946,43.41315,89.31001,86.41959,-26.99997,904.4756,12666,1,1,169.9334,44.19553,399.9371,399.9925,0.3683282,0.4671605,0.5578467,24.42947,11.7692,0,0.2191311,0.002251118,0,0.009441884,0.0002295172,0.0001966845,0.0002655035,1.474099E-05,0.0002060068,0.0002497422,0.000277039,0.002502357,0.002247918,0.05032463,0.0476048,0.0005370777,0.05142647,0,0.003382474,0.003106716,0.007163025,0.006503367,0.0004732939,0.04606583,0,0,0,0.1373788,0.7287371,0.1143942,0.04491769,0.0006522842,5.369353E-05,0.0004807381,0.001863346,0.002440181,1,0,-78.22653,"NAN",1,0,960,0.429056,160.8836,10.19438,16.75706,0,0,30.81511,30.65142,1,1,23.41013,9.53303
"2023-03-15 15:30:44.2",1080,20,0,100,1.459922,0.01449128,0,29.99952,-0.9999806,73.5201,71.36329,0.02395592,23.81579,23.78041,2.440664,2.951251,2.260759,53.11383,43.24247,-19.99996,810.6099,12325,53.57811,50.51945,99.91441,100.012,-26.99993,905.0369,12667,1,1,168.4684,97.98127,400.0027,400.1084,0.3920645,0.4619675,0.557424,24.42727,11.76925,0,0.5612743,0.006045497,0,0.009549784,0.0002631758,0.0002489172,0.0002766183,1.186393E-05,0.0002493078,0.0002384427,0.0003159432,0.00280889,0.002962929,0.05755315,0.06486806,0.0005466943,0.05114261,0,0.009246283,0.009688032,0.0180171,0.01799295,0.0004969317,0.04798536,0,0,0,0.1824084,0.1069778,0.02185936,0.3050186,5.026754E-05,0.0003664241,0.0004933075,0.0008587344,0.002269855,1,0,-77.81404,"NAN",1,0,960,0.4413828,160.7897,10.19605,16.75667,0,0,30.7995,30.63321,1,1,23.38533,9.533092
"2023-03-15 15:37:24.2",1100,23,0,100,312.1133,3.433459,0,30.00003,-0.9999875,73.5203,71.36356,0.02395983,23.7974,23.76403,2.442487,2.950643,2.259163,53.10254,43.20871,-19.99999,811.0758,12325,49.3667,45.26384,92.17584,89.97195,-26.99998,905.4733,12667,1,1,168.5182,142.8673,400.0009,400.0471,0.408223,0.4571646,0.5573927,24.41385,11.76654,0,0.1840943,0.001895569,0,0.01150788,0.0002554858,0.0001725374,0.000224684,1.267303E-05,0.0002684173,0.0003059192,0.0003069562,0.002886172,0.002763138,0.06002589,0.05849149,0.0004732462,0.04638164,0,0.00385954,0.004034193,0.007248778,0.00810222,0.0004298814,0.04336122,0,0,0,0.178301,0.1183575,0.01975832,0.1552993,5.626845E-05,0.0001722699,0.0005903778,0.002151014,0.002226041,1,0,-78.73636,"NAN",1,0,960,0.4315474,160.3294,10.20674,16.738,0,0,30.79917,30.60034,1,1,23.35139,9.528115
"2023-03-15 15:44:04.2",1120,2,0,100,294.8737,3.256703,0,29.99907,-0.9999896,73.52025,71.36359,0.02395588,23.77214,23.74091,2.443996,2.951602,2.259012,53.12454,43.20224,-19.99997,811.4615,12325,49.60271,45.55425,92.61177,90.50759,-26.99995,905.8508,12665,1,1,163.1485,51.00054,400.0123,399.9066,0.3717843,0.4844953,0.5578861,24.39667,11.76848,0,1.113866,0.01225641,0,0.0101928,0.0002394359,0.0002269476,0.0002398961,1.247938E-05,0.0003295442,0.0002063829,0.0002877832,0.002777948,0.002485129,0.05388855,0.0523482,0.0004517301,0.04306163,0,0.01465437,0.01820446,0.02679807,0.03462075,0.0004461154,0.04312891,0,0,0,0.111337,0.164587,0.02181963,0.3661935,0.0001060048,0.000414634,0.0005237043,0.001591039,0.002145636,1,0,-77.56983,"NAN",1,0,960,0.4218801,160.0113,10.20809,16.71943,0,0,30.7662,30.6,1,1,23.32482,9.528405
"2023-03-15 15:50:44.2",1140,11,0,100,393.2284,4.289114,0,29.99765,-0.9999861,73.52052,71.36385,0.02395513,23.74187,23.71225,2.44521,2.952741,2.258638,53.13807,43.19405,-19.99996,811.7645,12325,48.32396,44.03131,90.26377,87.61277,-26.99998,906.1386,12662,1,1,171.2177,57.54533,400.0237,400.0235,0.3753635,0.4655801,0.5569987,24.37286,11.76867,0,0.2419897,0.001978111,0,0.0126161,0.000233937,0.0002275917,0.0002651486,1.390047E-05,0.0004100089,0.0003041392,0.0002809623,0.002819456,0.002802952,0.05070429,0.05215882,0.0004809557,0.04773232,0,0.00454038,0.004078973,0.006939569,0.007145707,0.0004262516,0.04178707,0,0,0,0.13054,0.3155897,0.04507741,0.0357434,0.000353572,5.599438E-05,0.0007110446,0.002069508,0.002288525,1,0,-77.25592,"NAN",1,0,960,0.4607316,159.9073,10.18171,16.69648,0,0,30.73288,30.56689,1,1,23.29491,9.526519
"2023-03-15 15:57:24.2",1160,13,0,100,392.8658,4.284606,0,29.99997,-0.9999958,73.52076,71.36411,0.02395551,23.70019,23.67118,2.445997,2.953795,2.257626,53.15428,43.17737,-20.00001,811.9626,12325,48.32778,44.03083,90.28025,87.61652,-26.99995,906.3388,12667,1,1,171.2449,58.72548,400.0111,400.0349,0.3760649,0.4694754,0.5567084,24.34021,11.76856,0,0.3006129,0.00269211,0,0.01240898,0.0002565782,0.0002775877,0.0003010531,1.266236E-05,0.0003915541,0.00036783,0.0003083924,0.002819907,0.002862676,0.04883772,0.0508304,0.0005222455,0.05097544,0,0.004871487,0.004376864,0.007403948,0.007616403,0.0004647284,0.04454899,0,0,0,0.4791749,0.3725715,0.07194042,0.04049279,0.0004158212,7.251852E-05,0.0006388056,0.001676728,0.00225435,1,0,-80.43186,"NAN",1,0,960,0.4612479,159.9743,10.14746,16.70688,0,0,30.68361,30.53378,1,1,23.23843,9.518696
"2023-03-15 15:57:44.2",1161,20,0,100,1.505406,0.01423326,0,30.00005,-1.000006,73.52076,71.36406,0.02395579,23.69757,23.6689,2.446007,2.955264,2.260104,53.18678,43.22472,-19.99999,811.9658,12325,53.56754,50.5112,99.91442,100.006,-26.99997,906.3541,12667,1,1,168.7838,97.44025,400.0024,400.3277,0.3924776,0.4668034,0.5566816,24.33823,11.76823,0,0.5607274,0.005998963,0,0.01190953,0.0002823647,0.0002799954,0.00031699,1.355288E-05,0.0004128333,0.0004138538,0.0003388423,0.003577981,0.003212765,0.0588908,0.05398742,0.0004843891,0.04683693,0,0.009306431,0.01025681,0.01551587,0.01868714,0.0004509915,0.04451009,0,0,0,0.1766209,0.09347676,0.02035118,0.3188572,5.838301E-05,0.001115968,0.000609515,0.00219247,0.002204699,1,0,-77.18916,"NAN",1,0,960,0.4404003,159.6584,10.14738,16.70829,0,0,30.67072,30.53332,1,1,23.23843,9.516064