File: Greenhouse gas exchange and TDL/TGA Sampling System_SiteAvg.dat
"TOA5","TGA Sampling System","CR3000","3722","CR3000.Std.28.02","CPU:TGAsampling_v1_2_LICOR_high_CO2__site_11_13_CalTank2.CR3","2183","SiteAvg"
"TIMESTAMP","RECORD","valve_number","diag_system_Avg","NumSamples","Conc12C_Avg","Conc13C_Avg","TGAStatus_Avg","TGAPressure_Avg","LaserTemp_Avg","DCCurrentA_Avg","DCCurrentB_Avg","TGAAnalog1_Avg","TGATemp1_Avg","TGATemp2_Avg","LaserCooler_Avg","RefDetSigA_Avg","RefDetSigB_Avg","RefDetTransA_Avg","RefDetTransB_Avg","RefDetTemp_Avg","RefDetCooler_Avg","RefDetGainOffset_Avg","SmpDetSigA_Avg","SmpDetSigB_Avg","SmpDetTransA_Avg","SmpDetTransB_Avg","SmpDetTemp_Avg","SmpDetCooler_Avg","SmpDetGainOffset_Avg","TGATemp1DutyCycle_Avg","TGATemp2DutyCycle_Avg","SampleFlow_Avg","ExcessFlow_Avg","SamplePress_Avg","BypassPress_Avg","SampleP_control_Avg","BypassP_control_Avg","TGAPress_control_Avg","panel_tmpr_Avg","batt_volt_Avg","buff_depth_Max","Conc12C_Std","Conc13C_Std","TGAStatus_Std","TGAPressure_Std","LaserTemp_Std","DCCurrentA_Std","DCCurrentB_Std","TGAAnalog1_Std","TGATemp1_Std","TGATemp2_Std","LaserCooler_Std","RefDetSigA_Std","RefDetSigB_Std","RefDetTransA_Std","RefDetTransB_Std","RefDetTemp_Std","RefDetCooler_Std","RefDetGainOffset_Std","SmpDetSigA_Std","SmpDetSigB_Std","SmpDetTransA_Std","SmpDetTransB_Std","SmpDetTemp_Std","SmpDetCooler_Std","SmpDetGainOffset_Std","TGATemp1DutyCycle_Std","TGATemp2DutyCycle_Std","SampleFlow_Std","ExcessFlow_Std","SamplePress_Std","BypassPress_Std","SampleP_control_Std","BypassP_control_Std","TGAPress_control_Std","panel_tmpr_Std","batt_volt_Std","Li64Match_Avg(1)","Li64Match_Avg(2)","Li64Tmpr_Avg(1)","Li64Tmpr_Avg(2)","Li64Heat_Avg(1)","Li64Heat_Avg(2)","_Mix_diag_system_Avg","_Mix_ExcessZeroFlow_Avg","_Mix_ExcessMixFlow_Avg","_Mix_CO2Press_Avg","_Mix_ZeroPress_Avg","_Mix_CO2P_control_Avg","_Mix_ZeroP_control_Avg","_Mix_MixTmpr1_Avg","_Mix_MixTmpr2_Avg","_Mix_MixHeat1_Avg","_Mix_MixHeat2_Avg","_Mix_panel_tmpr_Avg","_Mix_batt_volt_Avg"
"TS","RN","","","","ppm","ppm","","mb","degC","mA","mA","V","degC","degC","V","mV","mV","%","%","degC","","","mV","mV","%","%","degC","","","","","ml_min","ml_min","mb","mb","","","","degC","V","","ppm","ppm","","mb","degC","mA","mA","V","degC","degC","V","mV","mV","%","%","degC","","","mV","mV","%","%","degC","","","","","ml_min","ml_min","mb","mb","","","","degC","V","","","degC","degC","","","","","","","","","","","","","","",""
"","","Smp","Avg","Tot","Avg","Avg","Avg","Avg","Avg","Avg","Avg","Avg","Avg","Avg","Avg","Avg","Avg","Avg","Avg","Avg","Avg","Avg","Avg","Avg","Avg","Avg","Avg","Avg","Avg","Avg","Avg","Avg","Avg","Avg","Avg","Avg","Avg","Avg","Avg","Avg","Max","Std","Std","Std","Std","Std","Std","Std","Std","Std","Std","Std","Std","Std","Std","Std","Std","Std","Std","Std","Std","Std","Std","Std","Std","Std","Std","Std","Std","Std","Std","Std","Std","Std","Std","Std","Std","Avg","Avg","Avg","Avg","Avg","Avg","Avg","Avg","Avg","Avg","Avg","Avg","Avg","Avg","Avg","Avg","Avg","Avg","Avg"
"2023-03-16 09:22:32.1",0,20,0,100,3.76203,0.03393208,0,29.99766,-0.9999931,73.48389,71.32661,0.02390222,21.17628,21.12098,2.212748,2.990051,2.183439,54.15379,42.06279,-19.99997,754.5767,12322,53.40299,50.37422,99.82371,99.98418,-26.99999,850.4735,12665,1,1,170.0138,98.4675,399.9985,400.1234,0.3897141,0.4645614,0.53025,22.37525,11.76406,0,0.587496,0.006542095,0,0.01372795,0.0002373696,0.0002312729,0.0002628725,1.142641E-05,0.0004233408,0.0003509493,0.0002850038,0.001330394,0.001231586,0.03074259,0.02664104,0.000664397,0.06758282,0,0.008601237,0.01125674,0.01584384,0.02140645,0.0007356948,0.07454776,0,0,0,0.1746226,0.1141125,0.02133644,0.1963085,4.982995E-05,0.0002689011,0.0007048483,0.001991342,0.00254166,1,0,-78.45085,"NAN",1,0,"NAN","NAN","NAN","NAN","NAN","NAN","NAN","NAN","NAN","NAN","NAN","NAN","NAN"
"2023-03-16 09:30:52.1",25,12,0,100,435.9066,4.745955,0,29.99959,-0.9999917,73.48365,71.32639,0.02390389,21.23478,21.18124,2.213536,3.013339,2.210555,54.56402,42.56379,-19.99999,754.7664,12322,47.89632,43.17871,89.66724,86.19531,-26.99997,850.6528,12665,1,1,171.8069,52.58463,399.9618,400.0124,0.3719037,0.4667776,0.5365885,22.34333,11.76265,0,0.2390951,0.002501636,0,0.01108776,0.0002358847,0.0002260174,0.0002141538,1.110681E-05,0.0003685595,0.0003663666,0.0002839426,0.001362815,0.0009656587,0.02821564,0.0217817,0.0005668527,0.05538248,0,0.002767179,0.00185313,0.006248361,0.004528462,0.0004547035,0.04714375,0,0,0,0.1212003,0.4078472,0.08754346,0.02332393,0.0003548028,5.005589E-05,0.0005740207,0.001966022,0.002274913,1,0,-80.26089,"NAN",1,0,960,0.4959391,163.833,11.12743,16.75032,0,0,27.85644,27.92664,1,1,20.47537,9.502544
"2023-03-16 09:39:12.1",50,10,0,100,429.3098,4.674819,0,30.00064,-1.000002,73.48404,71.32671,0.02390525,21.28911,21.23875,2.21476,3.014512,2.214156,54.58519,42.62762,-19.99997,755.0566,12322,47.98452,43.29447,89.82066,86.4106,-27.00004,850.9261,12667,1,1,172.3126,48.55403,400.0362,400.0415,0.3672241,0.4656231,0.5399691,22.31563,11.76291,0,0.2656213,0.002551974,0,0.01263679,0.0002823959,0.0001860916,0.0002862112,1.181255E-05,0.0003843936,0.0004546018,0.0003388793,0.003824144,0.003368447,0.09030244,0.08287968,0.0006357359,0.06081121,0,0.005773661,0.005838074,0.01459473,0.01555248,0.0006671192,0.06073152,0,0,0,0.1164944,0.2673441,0.04832014,0.3775089,0.0003500944,0.0005371036,0.0006495243,0.002030531,0.001961284,1,0,-78.84799,"NAN",1,0,960,0.4995299,163.1772,11.04774,16.73507,0,0,27.8735,27.93506,1,1,20.54135,9.521785
"2023-03-16 09:47:32.1",75,26,4,100,1081.956,11.90618,0,30.00036,-0.9999868,73.48453,71.32717,0.02389801,21.34793,21.29932,2.216458,3.009162,2.21117,54.4907,42.57031,-19.99997,755.4352,12322,40.67239,34.16338,76.3287,68.7888,-27.00001,851.2844,12646,1,1,167.0884,0.1683507,395.6745,399.8604,0.2,0.4691509,0.5422399,22.29541,11.76087,0,0.9722606,0.01053391,0,0.01221952,0.0002544996,0.0002227816,0.0002506457,1.137871E-05,0.000363953,0.0003873503,0.0003058881,0.00155474,0.001358777,0.03667479,0.03154908,0.0006256292,0.05882723,0,0.01083705,0.01192824,0.02017827,0.02347929,0.0005367669,0.05028469,0,0,0,0.09242728,0.009660682,0.07931946,0.4654498,0,0.0005070767,0.0006267186,0.002070709,0.002247059,1,0,-78.93864,"NAN",1,0,960,0.4919757,162.6836,10.95009,16.71728,0,0,27.90707,27.99453,1,1,20.61092,9.522356
"2023-03-16 09:55:52.1",100,21,0,100,71.95284,0.7870404,0,29.99977,-0.9999855,73.48518,71.32764,0.02390591,21.41589,21.36539,2.218586,3.01128,2.217094,54.53193,42.67618,-19.99998,755.9194,12322,52.50335,49.1563,98.15408,97.63602,-26.99997,851.7897,12663,1,1,169.7956,107.445,400.0065,400.0291,0.3919599,0.4562802,0.5431225,22.28677,11.76187,0,0.08503113,0.0006781269,0,0.01033219,0.0002254917,0.0001934382,0.0002479497,1.131714E-05,0.0003108747,0.000447695,0.0002705749,0.00106724,0.001026161,0.02249064,0.02305548,0.0005885726,0.05833556,0,0.002370096,0.002318643,0.004672773,0.005318772,0.000477895,0.04734128,0,0,0,0.221715,0.1858161,0.06188466,0.05463602,0.0001403709,6.485984E-05,0.0005318305,0.001681549,0.002203613,1,0,-78.64554,"NAN",1,0,960,0.4889213,162.7021,10.8225,16.69946,0,0,27.96515,28.04939,1,1,20.69151,9.524452
"2023-03-16 10:04:12.1",125,13,0,100,395.2371,4.313251,0,30.00088,-0.9999799,73.48583,71.32828,0.02390459,21.4907,21.43916,2.221195,3.00831,2.216498,54.4757,42.65577,-19.99994,756.5281,12322,48.37886,43.81016,90.56277,87.38361,-26.99997,852.3737,12666,1,1,172.4908,46.93894,399.9433,400.0148,0.3641911,0.4623526,0.5439166,22.29219,11.76366,0,0.1950064,0.001855387,0,0.009952185,0.0002452981,0.0002527992,0.0002855196,1.176985E-05,0.0005698843,0.0005458459,0.0002955731,0.001201899,0.001125803,0.02616197,0.02317657,0.0006160195,0.06339542,0,0.002703566,0.00247018,0.00559072,0.004850382,0.0005632619,0.05688497,0,0,0,0.4086391,0.5107372,0.07590194,0.02541569,0.0005538656,6.150535E-05,0.0005050062,0.001766043,0.002207967,1,0,-79.07204,"NAN",1,0,960,0.4860564,162.1253,10.65892,16.67904,0,0,28.04291,28.11361,1,1,20.79844,9.519597
"2023-03-16 10:12:32.1",150,11,0,100,396.651,4.332541,0,30.00008,-0.9999799,73.48631,71.32855,0.02390876,21.56695,21.51556,2.224219,3.007635,2.217717,54.46395,42.67839,-19.9999,757.2589,12322,48.35596,43.78142,90.53093,87.32415,-26.99993,853.0834,12663,1,1,172.7351,47.83479,400.005,400.0139,0.364115,0.4619153,0.5452846,22.3048,11.76311,0,0.1857613,0.001831046,0,0.01293098,0.0002480372,0.0002599956,0.0002948163,1.127477E-05,0.000593148,0.0005865493,0.0002987618,0.003676168,0.004028904,0.0827314,0.09141311,0.0006265747,0.06167217,0,0.003689253,0.003177314,0.007274075,0.007013686,0.0004761563,0.04794614,0,0,0,0.1101634,0.2744856,0.07374011,0.03030125,0.0003763976,4.198511E-05,0.0006628245,0.001851808,0.002177773,1,0,-79.25501,"NAN",1,0,960,0.4438904,161.7728,10.59782,16.66818,0,0,28.10983,28.17411,1,1,20.90441,9.520145
"2023-03-16 10:20:52.1",175,2,0,100,296.0632,3.272143,0,30.00047,-0.9999743,73.48715,71.32922,0.02390196,21.64014,21.58974,2.227636,3.005847,2.219041,54.42323,42.69177,-19.99997,758.0717,12322,49.61355,45.3605,92.84193,90.33389,-26.9999,853.8824,12660.37,1,1,164.2875,47.61713,400.0154,399.9146,0.3643836,0.4796391,0.546127,22.32785,11.76304,0,1.148265,0.01279252,0,0.01454393,0.0002779294,0.0002530365,0.00026657,1.26201E-05,0.000352972,0.0004093837,0.0003348657,0.00126722,0.001358613,0.02826035,0.02699056,0.0005233382,0.05151398,0,0.01514573,0.01917729,0.02810074,0.03683766,0.0006129797,0.05860516,2.386022,0,0,0.1073459,0.1491913,0.01914342,0.3527119,0.0001420767,0.000410692,0.0007477081,0.001307821,0.002408933,1,0,-81.20625,"NAN",1,0,960,0.4854213,162.2991,10.62004,16.66932,0,0,28.20226,28.26865,1,1,20.98821,9.523101
"2023-03-16 10:29:12.1",200,23,0,100,323.2206,3.558105,0,29.99999,-0.999984,73.48773,71.32973,0.02390996,21.71286,21.6629,2.231329,3.004811,2.220005,54.38131,42.71231,-19.99995,758.9595,12322,49.26309,44.90207,92.20187,89.46861,-26.99993,854.7492,12666,1,1,169.6199,142.0456,400.0035,400.0602,0.4018173,0.4525594,0.546433,22.35883,11.76095,0,0.1872206,0.002170428,0,0.01055665,0.000252031,0.0002077861,0.0002748922,1.332251E-05,0.0005121411,0.0004926759,0.0003037264,0.001831052,0.00170717,0.04157069,0.03979079,0.0005660456,0.05442262,0,0.003382737,0.003428457,0.00735637,0.008204953,0.0006211511,0.06080687,0,0,0,0.1511965,0.1074347,0.02271076,0.1576766,5.801228E-05,0.0001762267,0.000540102,0.001911299,0.002290891,1,0,-77.2132,"NAN",1,0,960,0.5202302,162.1465,10.59427,16.66954,0,0,28.2986,28.35812,1,1,21.10506,9.524101
"2023-03-16 10:37:32.1",225,20,0,100,1.560676,0.01958367,0,30.00059,-0.9999743,73.48843,71.33049,0.02390376,21.78893,21.73974,2.235234,3.004296,2.223225,54.35796,42.76398,-19.99992,759.9219,12322,53.46126,50.39329,99.92526,99.97525,-26.99986,855.6885,12667,1,1,169.5976,97.67505,400.0032,400.1104,0.3865969,0.4575893,0.5468284,22.39852,11.76355,0,0.5606908,0.006099456,0,0.009906253,0.0002696564,0.0002388136,0.0002878484,1.280333E-05,0.0005554034,0.0004994555,0.0003249438,0.00159314,0.001982962,0.03589621,0.0432713,0.0005802846,0.05709965,0,0.007420056,0.01043969,0.01488393,0.0208261,0.0005946295,0.05819099,0,0,0,0.1766815,0.09630999,0.01875598,0.2203962,4.860719E-05,0.0002570656,0.0005018529,0.001825864,0.002217296,1,0,-77.11172,"NAN",1,0,960,0.5161951,162.0705,10.55249,16.64852,0,0,28.41632,28.4485,1,1,21.20768,9.527189
"2023-03-16 10:45:52.1",250,12,0,100,418.0102,4.563039,0,29.99962,-0.9999806,73.48929,71.33108,0.02390989,21.86754,21.81907,2.239599,2.999831,2.221985,54.26168,42.739,-19.99992,760.9587,12322,48.08374,43.46545,90.01119,86.71227,-26.99987,856.6866,12663,1,1,171.0313,50.66985,399.948,400.0111,0.36617,0.4623823,0.5476309,22.44888,11.76448,0,0.7650996,0.008066249,0,0.01320424,0.0002689699,0.0002258742,0.0002524186,1.206236E-05,0.0005264304,0.0005968952,0.0003230456,0.002069758,0.001987995,0.04990378,0.04643619,0.0006710214,0.06682964,0,0.01014586,0.01202899,0.01967525,0.02285512,0.0006766935,0.06585155,0,0,0,0.1099244,0.4558147,0.08806276,0.02423646,0.000463926,5.372602E-05,0.0006787616,0.001711601,0.002232363,1,0,-78.74851,"NAN",1,0,960,0.4615326,161.5681,10.47565,16.64813,0,0,28.50977,28.54114,1,1,21.31355,9.527203
"2023-03-16 10:54:12.1",275,10,0,100,433.5789,4.731978,0,30.00036,-0.9999681,73.49014,71.33179,0.02390677,21.94263,21.89422,2.244226,2.997416,2.223263,54.21578,42.75235,-19.99987,762.072,12322,47.88879,43.23437,89.6483,86.26486,-26.99994,857.7671,12665,1,1,171.266,45.27354,400.1002,400.0436,0.3626438,0.4636569,0.547946,22.49839,11.76442,0,0.3557218,0.003747058,0,0.008599048,0.0002180758,0.0002595705,0.0002758089,1.187514E-05,0.0002698393,0.0003986236,0.0002640414,0.002805299,0.002798695,0.05924347,0.06097341,0.0006219143,0.0657907,0,0.004775408,0.004595763,0.009856313,0.01048165,0.000642305,0.06409933,0,0,0,0.1969794,0.5288975,0.08079495,0.3575266,0.0009987521,0.0004954169,0.0004387939,0.002210736,0.002267101,1,0,-79.65965,"NAN",1,0,960,0.4784183,161.1421,10.40572,16.64744,0,0,28.60358,28.65107,1,1,21.40996,9.519598
"2023-03-16 11:02:32.1",300,26,4,100,1012.472,11.14892,0,30.00061,-0.9999687,73.49085,71.3325,0.02391214,22.00507,21.95182,2.248805,2.99194,2.219932,54.12605,42.68385,-19.99989,763.198,12322,41.2858,35.06764,77.4715,70.51913,-26.99994,858.8424,12648,1,1,166.7583,0.1715928,395.8408,399.8596,0.2,0.4677995,0.5488386,22.53762,11.762,0,0.9979862,0.009946105,0,0.01231846,0.0002487336,0.0001966328,0.0002231809,1.339842E-05,0.0003463019,0.0002624029,0.0002980463,0.001812701,0.001668432,0.03637019,0.03712118,0.0006764974,0.06727271,0,0.008943873,0.01087035,0.01799438,0.02201982,0.0006476549,0.06363836,0,0,0,0.08327388,0.009531582,0.08651461,0.4651698,0,0.0005057345,0.0006272059,0.001840462,0.002276934,1,0,-77.85503,"NAN",1,0,960,0.4829166,161.3693,10.35802,16.66496,0,0,28.68273,28.7263,1,1,21.47847,9.519211
"2023-03-16 11:10:52.1",325,21,0,100,66.99014,0.7399757,0,30.00012,-0.9999604,73.49152,71.33332,0.02391543,22.04991,21.98739,2.253221,2.993729,2.224514,54.16331,42.76179,-19.99988,764.306,12322,52.57061,49.23027,98.29259,97.75189,-26.99994,859.9434,12673,1,1,169.483,107.3399,400.0027,400.035,0.3910201,0.4562458,0.5482568,22.56417,11.76241,0,0.08735564,0.0007325023,0,0.009495338,0.0002254679,0.000115581,0.0002048629,1.1456E-05,0.0003157643,0.000299525,0.0002715645,0.001721428,0.001505521,0.0337801,0.03289939,0.0006891927,0.0676845,0,0.003360341,0.002635088,0.00773222,0.007948154,0.0005576561,0.05347637,0,0,0,0.1668826,0.11565,0.0226841,0.05616124,5.372973E-05,8.191126E-05,0.0004863523,0.00186822,0.002161072,1,0,-77.12058,"NAN",1,0,960,0.4696489,161.3686,10.33969,16.66428,0,0,28.75855,28.7604,1,1,21.5327,9.517911
"2023-03-16 11:19:12.1",350,13,0,100,394.2286,4.307919,0,30.00031,-0.9999736,73.49224,71.3342,0.02391698,22.08353,22.01656,2.257384,2.991486,2.223068,54.12508,42.73045,-19.99988,765.3787,12322,48.35098,43.83224,90.52407,87.4072,-26.99991,860.9836,12666,1,1,172.1503,47.85748,399.9487,400.0155,0.3646001,0.4649037,0.5481091,22.57821,11.76391,0,0.2097296,0.002133685,0,0.01191672,0.0002275138,0.0002371446,0.0002727529,1.188543E-05,0.0004227844,0.0003085564,0.0002728296,0.00156683,0.00142373,0.0305688,0.02898387,0.0006371129,0.06500974,0,0.003589094,0.003402783,0.007202045,0.007575284,0.0006550773,0.06378701,0,0,0,0.374032,0.4505335,0.06395282,0.02852741,0.0004937868,7.176395E-05,0.0006099329,0.001814159,0.002347536,1,0,-78.96894,"NAN",1,0,960,0.5028827,161.1783,10.3337,16.64973,0,0,28.79184,28.79184,1,1,21.58692,9.517186
"2023-03-16 11:27:32.1",375,11,0,100,395.434,4.321788,0,29.99941,-0.9999743,73.49262,71.33476,0.02391457,22.11978,22.05014,2.261318,2.991306,2.224199,54.11372,42.74329,-19.9999,766.4219,12322,48.33911,43.81883,90.49794,87.37211,-26.99992,862.0006,12662,1,1,172.2836,51.25996,400.0171,400.0302,0.3665353,0.4641706,0.5482364,22.58918,11.76386,0,0.2280385,0.002472766,0,0.009908673,0.0002482535,0.0001958081,0.000206215,1.08948E-05,0.0004430704,0.000307292,0.0003002239,0.001747417,0.001710391,0.03219927,0.03409754,0.0006565535,0.06660341,0,0.003378731,0.003268763,0.006767821,0.00737999,0.0006646608,0.06236535,0,0,0,0.1104288,0.2779286,0.05380079,0.0337369,0.0003821573,8.69718E-05,0.0005060282,0.002034964,0.002358709,1,0,-77.41651,"NAN",1,0,960,0.4821873,161.2742,10.30789,16.6543,0,0,28.82333,28.82349,1,1,21.61628,9.519687
"2023-03-16 11:35:52.1",400,2,0,100,295.5976,3.266585,0,29.99797,-0.9999736,73.49287,71.33525,0.0239203,22.16985,22.10109,2.265503,2.990891,2.225886,54.09771,42.76999,-19.99991,767.4726,12322,49.60235,45.39498,92.80939,90.37123,-26.99989,863.0422,12662.88,1,1,163.9697,47.32209,400.019,399.9329,0.3645904,0.4807298,0.5494905,22.61001,11.76377,0,1.123991,0.01225214,0,0.0104976,0.0002717157,0.0001950661,0.0002593033,1.194009E-05,0.0005636579,0.0003460119,0.0003265563,0.00152124,0.001524446,0.02923211,0.03123138,0.0006069502,0.05898626,0,0.01451716,0.0181146,0.02732041,0.03534228,0.0005743394,0.05729039,0.84,0,0,0.1255449,0.1466102,0.02377496,0.3373444,0.0001670738,0.0004166904,0.0005729489,0.001999286,0.002221745,1,0,-76.80475,"NAN",1,0,960,0.5124465,161.9529,10.43205,16.65708,0,0,28.85609,28.86346,1,1,21.67051,9.534372
"2023-03-16 11:44:12.1",425,23,0,100,317.2607,3.491521,0,30.00011,-0.9999722,73.49372,71.3363,0.02391764,22.23627,22.17178,2.270015,2.989395,2.227482,54.03465,42.79459,-19.99992,768.5779,12322,49.32113,45.03214,92.28431,89.68688,-26.99995,864.1292,12665,1,1,169.3357,141.8929,400.0017,400.0585,0.4024443,0.4535666,0.5489403,22.6469,11.76189,0,0.2830666,0.003400233,0,0.01126783,0.0002852388,0.000221998,0.0002328224,1.43297E-05,0.0003666704,0.0004600226,0.0003444184,0.002938534,0.002802444,0.08073841,0.07348927,0.0007679866,0.07508924,0,0.003945839,0.004269071,0.008915536,0.009232124,0.0006666695,0.06806148,0,0,0,0.2126777,0.1108382,0.02123095,0.154415,5.408131E-05,0.0001730439,0.0005815284,0.001913225,0.002297943,1,0,-78.35072,"NAN",1,0,960,0.456063,161.1472,10.49025,16.655,0,0,28.91923,28.9181,1,1,21.75043,9.527268
"2023-03-16 11:52:32.1",450,20,0,100,1.284811,0.01554886,0,29.9996,-0.9999611,73.49442,71.33718,0.02391884,22.31103,22.24848,2.274808,2.988639,2.231175,54.00176,42.87444,-19.99989,769.7687,12322,53.48465,50.42117,99.92969,100.0013,-26.99987,865.3024,12669,1,1,169.1916,97.40342,400.0043,400.1108,0.3873919,0.4582378,0.5496585,22.69592,11.76405,0,0.5567855,0.006059474,0,0.01111522,0.0002588194,0.0002437338,0.0002768019,1.192786E-05,0.0004601927,0.0005044607,0.0003135815,0.001594272,0.001529923,0.03164104,0.0296858,0.0005973994,0.05903137,0,0.008603532,0.0110594,0.01591232,0.021022,0.0005808273,0.05837808,0,0,0,0.1767517,0.107798,0.02347936,0.2135166,6.23876E-05,0.0002519596,0.0005688872,0.001925023,0.002372324,1,0,-77.04404,"NAN",1,0,960,0.4276266,160.4875,10.4539,16.63037,0,0,29.01202,28.98636,1,1,21.80832,9.533347
"2023-03-16 12:00:52.1",475,12,0,100,431.4569,4.705335,0,29.99988,-0.9999548,73.49522,71.33804,0.02392244,22.38772,22.32719,2.279875,2.983651,2.230073,53.90386,42.85661,-19.99991,771.0036,12322,47.88345,43.30886,89.60888,86.39553,-26.99993,866.4896,12666,1,1,170.4739,50.72907,399.9473,400.0121,0.3671643,0.4632159,0.550526,22.75884,11.76449,0,0.2403362,0.002396481,0,0.00927324,0.0002325977,0.0001776763,0.0002112873,1.098975E-05,0.0004534874,0.0003963858,0.0002793915,0.001569671,0.001545166,0.03008042,0.03238507,0.0006279874,0.06074259,0,0.003262077,0.002907916,0.007393268,0.005793239,0.0006270164,0.0622366,0,0,0,0.1337484,0.4795805,0.09036385,0.02645351,0.0004780479,6.126606E-05,0.0004762902,0.002085561,0.002203014,1,0,-80.14337,"NAN",1,0,960,0.4671044,160.8055,10.39403,16.62327,0,0,29.08792,29.07617,1,1,21.88965,9.534658
"2023-03-16 12:09:12.1",500,10,0,100,439.5862,4.793696,0,29.99988,-0.9999653,73.496,71.33894,0.02392099,22.44975,22.3876,2.284839,2.980861,2.230738,53.8556,42.86623,-19.99988,772.257,12322,47.7709,43.19054,89.40181,86.17084,-26.99993,867.7096,12664,1,1,170.7137,45.63684,400.0331,400.0441,0.3635637,0.4645554,0.5509197,22.8288,11.76495,0,0.3145515,0.003193376,0,0.01081169,0.0002476576,0.0001812238,0.0002424814,1.1854E-05,0.0003881921,0.0003943405,0.0003002459,0.001515462,0.001699738,0.0309481,0.03487122,0.0006283397,0.06544124,0,0.003740078,0.004364906,0.007796077,0.00911025,0.0006788136,0.06465751,0,0,0,0.1162452,0.2185137,0.04285441,0.3569823,0.0003405228,0.0004923344,0.0005571977,0.001156629,0.002225535,1,0,-78.73888,"NAN",1,0,960,0.4668005,160.8833,10.3755,16.63227,0,0,29.17148,29.16928,1,1,21.97273,9.537794
"2023-03-16 12:17:32.1",525,26,4,100,1012.833,11.1535,0,30.00142,-0.999966,73.49721,71.34026,0.02391802,22.50568,22.44442,2.290071,2.97736,2.228536,53.79356,42.81503,-19.99988,773.5178,12322,41.19357,35.12818,77.26572,70.62065,-26.99993,868.9239,12644,1,1,166.0306,0.1723413,395.3786,399.8557,0.2,0.4686033,0.5520537,22.8939,11.76274,0,1.032844,0.01195389,0,0.01010073,0.000253527,0.000174948,0.0002724262,1.056328E-05,0.000429078,0.0004276811,0.000304846,0.001502786,0.001686158,0.02918273,0.03283252,0.0006656899,0.06434215,0,0.01008938,0.01166886,0.0191881,0.02301448,0.0006582578,0.06529497,0,0,0,0.08269704,0.009542688,0.08235994,0.4689983,0,0.0005106037,0.0005154864,0.00215613,0.002130162,1,0,-80.68898,"NAN",1,0,960,0.474383,160.5681,10.40203,16.62679,0,0,29.23594,29.23434,1,1,22.02973,9.536135
"2023-03-16 12:25:52.1",550,21,0,100,67.80192,0.7382057,0,30.0006,-0.9999653,73.49787,71.34096,0.0239257,22.56997,22.51276,2.295484,2.978599,2.233343,53.8142,42.89677,-19.99985,774.8039,12322,52.56128,49.2688,98.22604,97.80103,-26.99989,870.2048,12666,1,1,168.9833,106.2539,400.0023,400.0299,0.3923714,0.45738,0.5526683,22.97237,11.76404,0,0.08205697,0.0007316057,0,0.01095367,0.0002600039,0.0001590449,0.0002143077,1.181129E-05,0.0003965654,0.0004724211,0.0003145135,0.001870194,0.001963764,0.03051128,0.03528402,0.0006670679,0.0661597,0,0.003331006,0.002965273,0.006564707,0.006700309,0.000637337,0.06452966,0,0,0,0.1929803,0.08921506,0.02025559,0.05761119,5.13905E-05,8.046458E-05,0.0005642536,0.00230532,0.002336338,1,0,-78.34964,"NAN",1,0,960,0.4573909,160.6136,10.4208,16.60559,0,0,29.33001,29.29895,1,1,22.11332,9.532219
"2023-03-16 12:34:12.1",575,13,0,100,393.6576,4.295038,0,29.99982,-0.9999653,73.49892,71.34184,0.02392453,22.63884,22.58933,2.301136,2.977244,2.233995,53.77673,42.90075,-19.9999,776.1122,12322,48.32446,43.90435,90.41708,87.5219,-26.99989,871.4732,12661,1,1,171.533,47.65453,399.9525,400.0113,0.3669411,0.4644208,0.5527714,23.05807,11.76554,0,0.4835255,0.004734826,0,0.01055793,0.0002294841,0.0001943257,0.0002636348,1.410868E-05,0.0005178873,0.000466418,0.0002760425,0.002427394,0.002574793,0.03601883,0.04312086,0.0006413918,0.06410673,0,0.003952806,0.003745286,0.007014434,0.00628471,0.0006513717,0.06122483,0,0,0,0.2884511,0.4116834,0.05987144,0.02975797,0.0004493849,6.96315E-05,0.0005435182,0.001961168,0.002249138,1,0,-77.6489,"NAN",1,0,960,0.4509287,160.5671,10.40781,16.60098,0,0,29.42691,29.37563,1,1,22.18953,9.540167
"2023-03-16 12:42:32.1",600,11,0,100,394.7592,4.306638,0,30.00051,-0.9999514,73.5,71.34263,0.02392662,22.7068,22.6639,2.306782,2.976045,2.235732,53.73376,42.93246,-19.99988,777.4603,12322,48.3106,43.891,90.37779,87.4946,-26.9999,872.7693,12661,1,1,171.4086,52.03202,400.0207,400.0207,0.3696736,0.4640976,0.5533669,23.14842,11.76567,0,0.1883196,0.001950573,0,0.01132912,0.0002414299,0.0002402892,0.000264779,1.266283E-05,0.0005114465,0.0005039974,0.0002918959,0.001560634,0.002023574,0.02832655,0.03808299,0.0006866436,0.06859156,0,0.003302437,0.003589751,0.006645895,0.007532089,0.0006137182,0.0589168,0,0,0,0.108267,0.2685657,0.04516183,0.03371339,0.0003652907,5.157513E-05,0.0005816225,0.002253016,0.002225233,1,0,-80.38671,"NAN",1,0,960,0.4795753,160.7979,10.37276,16.59709,0,0,29.49832,29.45892,1,1,22.25113,9.540328
"2023-03-16 12:50:52.1",625,2,0,100,295.7531,3.263617,0,29.99914,-0.9999583,73.50072,71.34297,0.02392892,22.77154,22.73384,2.312628,2.974936,2.237997,53.70689,42.96721,-19.99989,778.8203,12322,49.57346,45.43716,92.69482,90.44128,-26.99985,874.1005,12664,1,1,163.3643,46.62252,400.016,399.9244,0.3668569,0.4827232,0.554545,23.23857,11.76598,0,1.112534,0.01211449,0,0.0108839,0.0002600363,0.0002439389,0.0003139621,1.234973E-05,0.0004272851,0.0003957797,0.0003145076,0.001761771,0.001882718,0.03219361,0.03408116,0.0006246603,0.062966,0,0.01451372,0.01892116,0.02605331,0.03478015,0.000585185,0.05880115,0,0,0,0.1240227,0.1653307,0.0176656,0.3380458,0.0001316123,0.0003966111,0.0005556558,0.002227112,0.002264153,1,0,-77.027,"NAN",1,0,960,0.4356045,160.2004,10.34432,16.59798,0,0,29.58782,29.55527,1,1,22.33473,9.53879
"2023-03-16 12:59:12.1",650,23,0,100,312.1957,3.432873,0,30.00021,-0.999957,73.50211,71.34357,0.02392936,22.83047,22.79575,2.318463,2.973146,2.239108,53.67355,42.97958,-19.99988,780.164,12322,49.34542,45.15955,92.27278,89.92791,-26.99988,875.4199,12665,1,1,168.7841,140.6157,400.0021,400.097,0.4049273,0.4577848,0.5543165,23.32514,11.76405,0,0.2358599,0.002098198,0,0.01167264,0.0002710593,0.0002411552,0.0002968112,1.148392E-05,0.0003628428,0.0003867156,0.0003267631,0.002531624,0.002840188,0.03442945,0.04300747,0.0006238937,0.06116092,0,0.005240097,0.004718751,0.007454919,0.008144406,0.0005306116,0.05354673,0,0,0,0.1870582,0.1276724,0.01965619,0.1907452,4.812157E-05,0.000218727,0.0005993264,0.002038555,0.002214468,1,0,-78.7622,"NAN",1,0,960,0.4724168,161.0387,10.35199,16.61954,0,0,29.68417,29.61966,1,1,22.39229,9.543314
"2023-03-16 13:07:32.1",675,20,0,100,1.454517,0.01761405,0,29.99972,-0.9999646,73.5032,71.34426,0.0239323,22.88418,22.85079,2.32423,2.971371,2.240108,53.64919,42.9898,-19.99995,781.5059,12322,53.47584,50.43733,99.88115,100.0101,-26.99988,876.7383,12667.38,1,1,168.7406,96.66937,400.0031,400.114,0.3898935,0.4617951,0.5546928,23.40585,11.76623,0,0.566171,0.006176806,0,0.01122223,0.0002716873,0.0002122186,0.0002121191,1.221635E-05,0.0003271115,0.0004046778,0.0003269771,0.003908457,0.003630777,0.08836604,0.08131556,0.0006431017,0.06242915,0,0.009017771,0.01075105,0.01674512,0.02082771,0.0006046912,0.05767417,2.663757,0,0,0.2164376,0.1097856,0.02460388,0.2007759,6.213855E-05,0.0002672281,0.0005727015,0.00205127,0.002130469,1,0,-77.46849,"NAN",1,0,960,0.4836281,160.6677,10.35203,16.60043,0,0,29.74878,29.68417,1,1,22.47467,9.543104
"2023-03-16 13:15:52.1",700,12,0,100,431.0595,4.706087,0,29.99898,-0.9999653,73.5042,71.34517,0.02393667,22.93509,22.90348,2.329925,2.968483,2.238975,53.60921,42.95282,-19.99993,782.8401,12322,47.82711,43.33123,89.49613,86.40003,-26.9999,878.0185,12666,1,1,170.4444,50.31057,400.0003,400.0013,0.3706449,0.4653167,0.5551271,23.4863,11.76745,0,0.7219483,0.007895099,0,0.01062755,0.0002196134,0.0002272323,0.0002375441,1.267396E-05,0.0003947546,0.0004003815,0.0002652813,0.003510623,0.004182744,0.04539163,0.05740102,0.0006227003,0.06245025,0,0.005658593,0.005516804,0.006980772,0.007434505,0.0005626711,0.05447756,0,0,0,0.1762639,0.7769073,0.1234509,0.02300271,0.0006170424,2.750769E-05,0.0005406131,0.002248796,0.0021533,1,0,-80.78842,"NAN",1,0,960,0.4711372,160.3065,10.33637,16.58892,0,0,29.81642,29.74878,1,1,22.51862,9.540798
"2023-03-16 13:24:12.1",725,10,0,100,432.5526,4.723845,0,30.00038,-0.9999673,73.505,71.34598,0.0239355,22.98719,22.95748,2.335477,2.968354,2.240279,53.6039,42.97165,-19.99988,784.1404,12322,47.80858,43.308,89.46919,86.34696,-26.99988,879.308,12667,1,1,170.4201,45.05977,400.0353,400.0438,0.3661172,0.4666983,0.5552226,23.55498,11.76703,0,0.3913476,0.003651781,0,0.01161633,0.0002308504,0.0002475228,0.0002964206,1.199754E-05,0.0003079709,0.0004102513,0.0002806415,0.003949985,0.004019211,0.04527739,0.05390228,0.0006013392,0.06213395,0,0.005832302,0.006102317,0.007960425,0.008783223,0.0005978741,0.0609023,0,0,0,0.1093307,0.2533733,0.04301801,0.3495937,0.0003647164,0.0004835472,0.0005915951,0.001862472,0.002262169,1,0,-81.41579,"NAN",1,0,960,0.4796311,160.9785,10.30743,16.60834,0,0,29.8858,29.81351,1,1,22.58776,9.547441
"2023-03-16 13:32:32.1",750,26,4,100,999.9869,11.0176,0,30.00089,-0.9999624,73.50584,71.3469,0.0239337,23.03619,23.00594,2.341078,2.966132,2.239641,53.54178,42.95407,-19.99989,785.4456,12322,41.24026,35.32302,77.34972,70.95902,-26.9999,880.5643,12648,1,1,165.1169,0.1648515,394.5209,399.8568,0.2,0.470905,0.5563098,23.6253,11.76502,0,1.133934,0.01143347,0,0.01072208,0.0002302764,0.0002525004,0.0002939895,1.314166E-05,0.0004541339,0.0002736792,0.0002792274,0.003611194,0.003806591,0.04380848,0.0548729,0.0005128075,0.05239033,0,0.01088072,0.01383345,0.01930041,0.02494173,0.0006009,0.0636797,0,0,0,0.08580617,0.01041004,0.08224162,0.4565386,0,0.0004942843,0.0005525444,0.001877783,0.002244017,1,0,-80.12763,"NAN",1,0,960,0.4458249,160.4586,10.29267,16.6272,0,0,29.94655,29.87836,1,1,22.67136,9.537263
"2023-03-16 13:40:52.1",775,21,0,100,65.80138,0.7262976,0,29.99949,-0.9999528,73.50674,71.34789,0.02393208,23.08302,23.05053,2.346605,2.968319,2.243634,53.55401,43.03528,-19.99989,786.7402,12322,52.60287,49.28728,98.284,97.79588,-26.99989,881.8456,12668,1,1,168.6511,106.0542,400.004,400.0293,0.3949229,0.4609962,0.5565547,23.69251,11.76604,0,0.1431267,0.0008780603,0,0.01125276,0.0002512991,0.0002247087,0.0003070916,1.383019E-05,0.0004434804,0.0003070068,0.0003046734,0.003751633,0.003917313,0.04049823,0.05290928,0.0006150185,0.06027702,0,0.006331757,0.005647457,0.006829002,0.006688812,0.000586569,0.05655797,0,0,0,0.1897416,0.1149819,0.02499228,0.04235139,5.871036E-05,6.098946E-05,0.0005782226,0.002885024,0.002404222,1,0,-76.93832,"NAN",1,0,960,0.4192836,160.626,10.29116,16.6349,0,0,30.00845,29.9432,1,1,22.72769,9.536964
"2023-03-16 13:49:12.1",800,13,0,100,392.6217,4.29098,0,29.99986,-0.9999611,73.50745,71.34872,0.02393787,23.13095,23.10008,2.352061,2.964236,2.244369,53.47453,43.03508,-19.99989,788.005,12322,48.31138,43.93091,90.37346,87.54291,-26.9999,883.075,12667,1,1,171.2707,47.49218,399.9567,400.0065,0.3690598,0.4663233,0.5562486,23.75377,11.76775,0,0.3247262,0.00246406,0,0.01103372,0.0002541189,0.0002343786,0.0002733799,1.178854E-05,0.0004017742,0.0004708655,0.0003064367,0.004269078,0.004310387,0.05357081,0.05967302,0.0006578207,0.06513456,0,0.006336557,0.005942686,0.006753517,0.00719536,0.0006837785,0.06665144,0,0,0,0.3626372,0.4021908,0.05711161,0.02408792,0.0004334634,3.786177E-05,0.0005649099,0.002153733,0.002024672,1,0,-80.65195,"NAN",1,0,960,0.465947,160.5575,10.28526,16.61895,0,0,30.07367,29.9808,1,1,22.76884,9.53968
"2023-03-16 13:57:32.1",825,11,0,100,394.4156,4.308882,0,30.00066,-0.9999646,73.50817,71.34959,0.02393619,23.18068,23.15335,2.357269,2.962245,2.244036,53.43328,43.02384,-19.99992,789.2644,12322,48.28453,43.90889,90.31933,87.50628,-26.9999,884.2993,12667,1,1,171.2887,51.76507,400.0181,400.0159,0.3717933,0.4658055,0.55659,23.81219,11.76755,0,0.2331908,0.001947437,0,0.009305443,0.0002834898,0.0002532461,0.0003236614,1.302681E-05,0.0004467566,0.0003055586,0.0003410085,0.001897224,0.002190029,0.03090295,0.03913984,0.0006271058,0.05852531,0,0.003372031,0.003459623,0.005788742,0.006197251,0.0005663907,0.05508295,0,0,0,0.1002745,0.2596894,0.04532972,0.0317563,0.0003513049,3.677403E-05,0.0004812829,0.00211912,0.002367522,1,0,-77.97676,"NAN",1,0,960,0.4215565,160.3917,10.26492,16.62337,0,0,30.13904,30.04108,1,1,22.81234,9.539846
"2023-03-16 14:05:52.1",850,2,0,100,295.3296,3.259763,0,30.00039,-0.9999591,73.5088,71.35062,0.02393629,23.23147,23.20549,2.362621,2.961325,2.245074,53.40759,43.03896,-19.9999,790.5262,12322,49.56018,45.46413,92.65897,90.47346,-26.99983,885.5348,12665,1,1,163.1026,45.93958,400.0164,399.9121,0.3683976,0.4842204,0.5570999,23.86798,11.76817,0,1.125601,0.01178761,0,0.008810619,0.0002592281,0.0002813161,0.0003062634,1.174173E-05,0.0003520743,0.0005090715,0.0003125315,0.0029739,0.003296562,0.03695225,0.04595881,0.0006039921,0.0606198,0,0.01550015,0.01827383,0.02629466,0.03355189,0.0005573811,0.05846467,0,0,0,0.1165229,0.1535052,0.02156,0.3519917,0.0001448888,0.0004079263,0.0004540778,0.002141243,0.002148211,1,0,-77.72993,"NAN",1,0,960,0.4462312,161.1117,10.27239,16.64129,0,0,30.20453,30.07383,1,1,22.86791,9.54312
"2023-03-16 14:14:12.1",875,23,0,100,307.1807,3.377336,0,30.00042,-0.9999687,73.50961,71.35174,0.02393945,23.28028,23.25911,2.367909,2.958494,2.24425,53.37511,43.0072,-19.99991,791.7787,12322,49.38343,45.25018,92.3461,90.07957,-26.99992,886.7552,12664,1,1,168.5416,140.4425,400.0017,400.0641,0.4066482,0.4579462,0.5574258,23.9149,11.76547,0,0.2053915,0.002010683,0,0.0100838,0.0002314789,0.0002020072,0.0002334317,1.181818E-05,0.0003972101,0.0003953838,0.0002798124,0.001983346,0.00186064,0.0316359,0.03168533,0.0005969169,0.06038702,0,0.003466042,0.003360512,0.007468665,0.007016815,0.0005887319,0.05951107,0,0,0,0.1916379,0.1205143,0.02252382,0.1515052,5.301775E-05,0.0001602514,0.0005194542,0.002014323,0.002076699,1,0,-80.49319,"NAN",1,0,960,0.4521893,161.1978,10.30376,16.6396,0,0,30.26168,30.13904,1,1,22.92303,9.538563
"2023-03-16 14:22:32.1",900,20,0,100,1.580825,0.01478402,0,30.00069,-0.9999653,73.51025,71.35283,0.02394176,23.32463,23.30408,2.373099,2.95839,2.246145,53.36559,43.03983,-19.99988,793.0104,12322,53.48743,50.43832,99.89711,100.0037,-26.99984,887.9579,12668.49,1,1,168.5063,96.52988,400.0024,400.0957,0.3913984,0.4616527,0.556612,23.95373,11.76764,0,0.5648181,0.006070744,0,0.01264282,0.0002575833,0.0002237544,0.000261847,1.153083E-05,0.000266792,0.0002367578,0.0003109264,0.002046445,0.002328458,0.03222957,0.04005616,0.0005747981,0.05624422,0,0.008789404,0.01040105,0.01575805,0.01991314,0.000597843,0.05748671,4.38975,0,0,0.1809527,0.1258681,0.02223223,0.203689,5.093615E-05,0.0002307936,0.0006514066,0.00225178,0.002182628,1,0,-78.57896,"NAN",1,0,960,0.4458161,160.1697,10.30683,16.60233,0,0,30.30298,30.20171,1,1,22.95376,9.535665
"2023-03-16 14:30:52.1",925,12,0,100,431.6807,4.707684,0,29.99994,-0.9999632,73.51082,71.35374,0.02394229,23.36263,23.34274,2.378128,2.956434,2.245156,53.3118,43.01771,-19.9999,794.2224,12322,47.79778,43.35019,89.41506,86.43224,-26.99991,889.1064,12666,1,1,170.0213,50.04055,399.9593,400.0053,0.3710932,0.4663158,0.5567924,23.98019,11.76811,0,0.2853517,0.002490585,0,0.01145468,0.0002424206,0.0002136479,0.0002127889,1.221145E-05,0.0002225622,0.0002973108,0.0002913197,0.002796825,0.002878176,0.03855327,0.04577935,0.0006200316,0.05899836,0,0.004910608,0.004348755,0.007015816,0.007079416,0.0006204526,0.06037166,0,0,0,0.1339996,0.4541756,0.08217001,0.02518336,0.0003853958,3.734716E-05,0.0005882686,0.002036796,0.002116885,1,0,-77.4892,"NAN",1,0,960,0.441494,160.0416,10.26838,16.59789,0,0,30.33584,30.20725,1,1,22.98164,9.537496
"2023-03-16 14:39:12.1",950,10,0,100,425.6141,4.643767,0,29.99952,-0.9999681,73.51179,71.355,0.02394412,23.39809,23.37817,2.382925,2.959112,2.249724,53.35605,43.11842,-19.99991,795.3853,8226,47.88628,43.45937,89.56434,86.63924,-26.99994,890.2454,12668,1,1,170.4126,44.24945,400.0322,400.0448,0.3666207,0.4674982,0.5565861,24.00139,11.76864,0,0.3222828,0.002922179,0,0.01191859,0.0002375379,0.0002385118,0.0002440318,1.257212E-05,0.0002972917,0.0002546046,0.0002868312,0.002354491,0.002270704,0.03731594,0.03740706,0.0005816967,0.05507706,0,0.004445382,0.0046313,0.008243419,0.009162457,0.0005669902,0.05531136,0,0,0,0.1323235,0.2337155,0.03914775,0.3583387,0.0003013918,0.0004934483,0.0006150263,0.001777412,0.002144372,1,0,-78.2691,"NAN",1,0,960,0.4458493,160.5257,10.2703,16.62905,0,0,30.36891,30.2393,1,1,23.01024,9.541267
"2023-03-16 14:47:32.1",975,26,4,100,994.0668,10.95,0,30.00097,-0.9999687,73.51244,71.35564,0.0239422,23.43708,23.41871,2.387727,2.953273,2.245314,53.2444,43.03439,-19.9999,796.533,8226,41.24775,35.45174,77.31516,71.2079,-26.99994,891.3497,12643,1,1,164.6335,0.1620408,394.0498,399.8539,0.2,0.4716756,0.5569836,24.01905,11.76598,0,1.375644,0.01614634,0,0.01004752,0.0002648715,0.0002395671,0.0002404712,1.270063E-05,0.0004511394,0.000293864,0.0003197729,0.00656644,0.006407645,0.1219424,0.1251815,0.0008252868,0.08043309,0,0.01151246,0.01249956,0.02073339,0.02486668,0.0006275259,0.06224201,0,0,0,0.08629801,0.008972599,0.0782715,0.4695402,0,0.0004971199,0.0005104628,0.002031904,0.002219928,1,0,-78.22865,"NAN",1,0,960,0.4576775,160.3372,10.2654,16.63403,0,0,30.40167,30.27011,1,1,23.06149,9.543199
"2023-03-16 14:55:52.1",1000,21,0,100,65.56307,0.7183053,0,30.00024,-0.9999673,73.51359,71.35679,0.02394356,23.47342,23.4548,2.39247,2.95824,2.254363,53.32193,43.19399,-19.9999,797.6746,8226,52.62036,49.32666,98.26379,97.87806,-26.99992,892.4797,12664,1,1,168.5606,105.9212,400.0019,400.0247,0.3956321,0.4600508,0.5569044,24.04157,11.76655,0,0.151603,0.001443491,0,0.009123159,0.0002440429,0.0002311437,0.0002538078,1.189486E-05,0.0002162532,0.0002429138,0.0002950608,0.002752552,0.002662014,0.03971714,0.04066958,0.0006015812,0.05995623,0,0.004303263,0.003946275,0.006372892,0.007530326,0.0006407428,0.05989498,0,0,0,0.1916288,0.1088605,0.01930363,0.04971684,4.435848E-05,5.221001E-05,0.0004668476,0.002054085,0.001949942,1,0,-78.14484,"NAN",1,0,960,0.4086365,160.4111,10.26943,16.63237,0,0,30.43466,30.30298,1,1,23.06866,9.539819
"2023-03-16 15:04:12.1",1025,13,0,100,393.1754,4.293908,0,29.99965,-0.9999757,73.51434,71.35738,0.02394425,23.49964,23.47955,2.396947,2.955185,2.251409,53.26524,43.13515,-19.99987,798.7643,8226,48.29184,43.9651,90.29945,87.6093,-26.99991,893.5251,12667,1,1,171.1464,46.7441,399.9594,400.0081,0.3692537,0.4666657,0.5568773,24.05827,11.7679,0,0.2926674,0.002522753,0,0.01322819,0.0002568011,0.0002468046,0.0002482928,1.268199E-05,0.0002424594,0.0002334184,0.0003095696,0.003173128,0.002669083,0.03999338,0.03834368,0.0005644626,0.0550521,0,0.004839052,0.004614566,0.006803101,0.007147457,0.0006619256,0.06430354,0,0,0,0.3185439,0.4233832,0.06018951,0.02460922,0.0004343397,3.81928E-05,0.0006794594,0.002100607,0.002126901,1,0,-77.20702,"NAN",1,0,960,0.4579898,160.4966,10.25402,16.61245,0,0,30.467,30.31083,1,1,23.09595,9.540762
"2023-03-16 15:12:32.1",1050,11,0,100,394.6735,4.310837,0,29.99956,-0.9999722,73.5152,71.35806,0.02394533,23.51708,23.49623,2.401141,2.954596,2.25175,53.25932,43.13655,-19.99994,799.7848,8226,48.27269,43.94066,90.26878,87.55795,-26.99991,894.5209,12666,1,1,171.3996,50.10561,400.017,400.0134,0.3713703,0.4661055,0.5569344,24.06879,11.76794,0,0.3535683,0.003258404,0,0.01054489,0.0002539617,0.0002704796,0.0003077238,1.165599E-05,0.0002845122,0.0002379598,0.0003076212,0.004070789,0.004538893,0.04495445,0.0600628,0.0006138651,0.05834584,0,0.006013654,0.005782544,0.006918168,0.007201341,0.0005696546,0.05828344,0,0,0,0.1105659,0.2891415,0.052313,0.02786533,0.0003684977,5.355118E-05,0.0005429824,0.001986411,0.002198125,1,0,-79.19345,"NAN",1,0,960,0.466335,159.8588,10.25746,16.5784,0,0,30.46768,30.33584,1,1,23.09652,9.541762
"2023-03-16 15:20:52.1",1075,2,0,100,295.5356,3.263928,0,30.00025,-0.9999812,73.51586,71.35859,0.0239488,23.53026,23.50744,2.404837,2.953614,2.253101,53.23998,43.1544,-19.99995,800.7405,8226,49.55594,45.48286,92.62361,90.49707,-26.9999,895.4394,12661.78,1,1,163.1489,45.53049,400.0162,400.032,0.3684286,0.4851827,0.5576742,24.07993,11.76868,0,1.052722,0.01216378,0,0.009541466,0.0002508611,0.0003595513,0.0003034243,1.360262E-05,0.0001987877,0.0002358118,0.0003019754,0.004455138,0.004623462,0.04729576,0.06080169,0.0006328006,0.06162224,0,0.0149659,0.01842673,0.0270485,0.03416118,0.0006513662,0.06076065,1.54,0,0,0.1138879,0.1639636,0.02106423,0.2979052,0.0001351059,0.0005942412,0.0004899728,0.002124917,0.002213479,1,0,-78.24896,"NAN",1,0,960,0.4566385,159.3239,10.22397,16.55715,0,0,30.46768,30.33584,1,1,23.11179,9.541758
"2023-03-16 15:29:12.1",1100,23,0,100,306.0461,3.365328,0,30.00056,-0.9999757,73.51648,71.35915,0.02394849,23.53426,23.5105,2.408415,2.954112,2.252592,53.24907,43.13737,-19.99992,801.6262,8226,49.40607,45.29595,92.36561,90.14848,-26.99991,896.285,12667,1,1,168.6168,139.6023,400.0022,400.0515,0.4064885,0.4569183,0.5570815,24.07607,11.76551,0,0.320837,0.002594238,0,0.009622353,0.00024311,0.0002247592,0.0002833292,1.263482E-05,0.0002505063,0.0002517524,0.0002931081,0.00410779,0.004101038,0.04832388,0.05482962,0.0006219347,0.06093906,0,0.005540455,0.005365284,0.007309113,0.008528921,0.0005828701,0.05953225,0,0,0,0.1944776,0.122849,0.02312905,0.1454219,5.559054E-05,0.0001577715,0.000495709,0.002005482,0.002365686,1,0,-79.26752,"NAN",1,0,960,0.4584177,159.4398,10.20721,16.55992,0,0,30.46768,30.33584,1,1,23.09609,9.529929
"2023-03-16 15:37:32.1",1125,20,0,100,1.866954,0.01643769,0,30.00029,-0.9999757,73.51694,71.35959,0.0239482,23.52268,23.49264,2.411354,2.956342,2.254757,53.28854,43.1759,-19.99989,802.4036,8226,53.51053,50.45242,99.91127,100.0025,-26.99989,897.046,12664,1,1,168.6618,96.26556,400.0037,400.0997,0.3911345,0.4611345,0.556542,24.05773,11.76792,0,0.5630223,0.006073068,0,0.01225414,0.0002651104,0.0002196414,0.0002542085,1.364848E-05,0.0002066254,0.0002238248,0.0003198818,0.002576762,0.002755568,0.03845036,0.04431064,0.0005638791,0.05290016,0,0.009427592,0.0104398,0.01706848,0.01991232,0.0006148411,0.05987493,0,0,0,0.2152258,0.0902745,0.02027708,0.2131845,5.496977E-05,0.0002426512,0.0006290044,0.002036394,0.002084862,1,0,-80.84664,"NAN",1,0,960,0.4762655,159.6058,10.20319,16.58414,0,0,30.46065,30.30298,1,1,23.06702,9.529287
"2023-03-16 15:45:52.1",1150,12,0,100,407.3824,4.442925,0,29.99825,-0.9999882,73.5172,71.35976,0.02394716,23.5163,23.4885,2.413892,2.954276,2.251389,53.2461,43.10854,-19.99995,803.0774,8226,48.11718,43.75216,89.9802,87.172,-26.99995,897.6886,12665,1,1,171.0005,48.62947,399.9661,400.0112,0.3700508,0.4657193,0.556717,24.03012,11.76765,0,4.962755,0.05406652,0,0.01304894,0.000258334,0.0001825023,0.0002617233,1.063481E-05,0.0002243696,0.000298646,0.0003104007,0.003830953,0.003706675,0.04876335,0.04822829,0.0005778308,0.05712533,0,0.06317482,0.076612,0.1151496,0.1471577,0.000609336,0.06048132,0,0,0,0.1138529,0.3762535,0.06887632,0.02518901,0.000364408,6.296708E-05,0.0006678523,0.002036555,0.002146057,1,0,-79.47363,"NAN",1,0,960,0.4454345,159.2273,10.21667,16.57039,0,0,30.40184,30.27011,1,1,23.06672,9.529075
"2023-03-16 15:54:12.1",1175,10,0,100,429.5279,4.685038,0,29.99985,-0.9999875,73.51768,71.36021,0.02394782,23.51973,23.4968,2.416189,2.954686,2.251299,53.24735,43.10414,-19.99993,803.7061,8226,47.84111,43.41295,89.46758,86.51328,-26.99998,898.2979,12662,1,1,171.7117,42.72811,400.0293,400.0445,0.3652894,0.4669463,0.5561429,24.00619,11.76802,0,0.5035535,0.004958484,0,0.01174815,0.0002968348,0.0002094671,0.0002932091,1.415771E-05,0.0002418932,0.000242115,0.0003562592,0.003759289,0.003775135,0.04523959,0.05135705,0.0006446823,0.06095498,0,0.007344765,0.007967834,0.01043572,0.01196191,0.0006208691,0.06086374,0,0,0,0.1129002,0.2137988,0.05146031,0.3578675,0.0002572197,0.0004968829,0.0006027627,0.002075734,0.002271408,1,0,-77.95289,"NAN",1,0,960,0.4561776,158.942,10.21742,16.55246,0,0,30.38708,30.2621,1,1,23.06432,9.53455
"2023-03-16 16:02:32.1",1200,26,4,100,990.3558,10.90794,0,30.00199,-0.999984,73.51833,71.36071,0.0239428,23.53637,23.51644,2.418476,2.951636,2.247938,53.19003,43.03595,-19.99996,804.317,8226,41.28102,35.50968,77.36926,71.2854,-27.00001,898.8848,12642,1,1,164.557,0.1613721,393.8746,399.8567,0.2,0.4707264,0.5569201,23.98944,11.7659,0,1.458816,0.01188198,0,0.01307273,0.0002632525,0.0002655982,0.0003115116,1.245327E-05,0.0002880782,0.0002305679,0.0003162891,0.004622011,0.004351398,0.05229995,0.05635813,0.0005987301,0.05918286,0,0.01149305,0.01365979,0.01923298,0.0236633,0.0005537846,0.05148907,0,0,0,0.07976133,0.008166796,0.08405688,0.4629073,0,0.0005042379,0.0006645434,0.001991038,0.002358442,1,0,-77.18435,"NAN",1,0,960,0.4309687,158.3924,10.17034,16.55238,0,0,30.36874,30.2373,1,1,23.04883,9.535065
"2023-03-16 16:10:52.1",1225,21,0,100,65.36823,0.7175336,0,29.99943,-0.9999833,73.51874,71.36118,0.02394495,23.56159,23.54149,2.420804,2.957134,2.255219,53.27498,43.17218,-19.99996,804.9456,8226,52.64112,49.33074,98.2953,97.82806,-26.99998,899.5276,12664,1,1,168.5952,105.2805,400.0035,400.0287,0.3949105,0.4594915,0.5564528,23.98148,11.76647,0,0.1237788,0.0008156589,0,0.01068163,0.0002706075,0.0002571681,0.0003141886,1.279928E-05,0.0002847188,0.0002773505,0.000325926,0.003956764,0.004010758,0.04372347,0.05319687,0.0006117608,0.06013965,0,0.005632988,0.006116021,0.006705949,0.007270339,0.0006292149,0.06160067,0,0,0,0.1916646,0.1189245,0.02046015,0.05047393,5.412952E-05,6.387685E-05,0.0005478664,0.001652234,0.002034427,1,0,-79.01517,"NAN",1,0,960,0.4555913,159.2774,10.16832,16.5574,0,0,30.36874,30.2373,1,1,23.06024,9.535728
"2023-03-16 16:19:12.1",1250,13,0,100,393.521,4.298851,0,30.00056,-0.9999799,73.51917,71.3616,0.02394476,23.5878,23.56531,2.423139,2.95402,2.254089,53.21366,43.13893,-19.99996,805.5782,8226,48.2978,43.96286,90.29758,87.5502,-26.99997,900.1359,12663,1,1,171.2011,46.38784,399.9545,400.0169,0.3685533,0.4660649,0.5564187,23.97977,11.76778,0,0.2452785,0.002158008,0,0.01063832,0.0002334246,0.0002227689,0.00023573,1.235419E-05,0.0002935888,0.0002452232,0.0002812251,0.002433014,0.002276902,0.03326769,0.03553237,0.0006572725,0.06357425,0,0.003946781,0.003739468,0.006963131,0.007167192,0.0005749027,0.05681885,0,0,0,0.28382,0.4283662,0.06048176,0.02460211,0.0004562009,6.932771E-05,0.0005445259,0.001994707,0.00227694,1,0,-77.39899,"NAN",1,0,960,0.476324,159.3951,10.1877,16.54352,0,0,30.3895,30.2663,1,1,23.06672,9.543502
"2023-03-16 16:27:32.1",1275,11,1.28,100,394.6367,4.313084,0.32,29.99873,-0.9999785,73.51965,71.36203,0.02394757,23.61585,23.59529,2.425595,2.954502,2.254942,53.21018,43.15295,-19.99995,806.2279,8226,48.28525,43.94604,90.26813,87.51407,-26.99997,900.7625,12665,1,1,171.2999,50.4929,400.0223,400.0161,0.3713274,0.4671566,0.5571065,23.99136,11.7676,0,0.2149673,0.002481439,3.18396,0.01098037,0.0002339092,0.0001336359,0.0002060662,1.270853E-05,0.0002643502,0.0002323433,0.000282444,0.00250884,0.002502584,0.04329882,0.04424676,0.0006492907,0.06211586,0,0.003640557,0.003611744,0.006368191,0.007394698,0.0006160028,0.06141008,0,0,0,0.09919372,0.3181448,0.05189238,0.03087112,0.0004041871,5.25636E-05,0.0005661822,0.001908581,0.00230183,1,0,-78.98331,"NAN",1,0,960,0.447983,158.9351,10.17565,16.53567,0,0,30.40167,30.27027,1,1,23.09091,9.544072
"2023-03-16 16:35:52.1",1300,2,0,100,295.3701,3.265994,0,30.00114,-0.9999778,73.52014,71.36248,0.02394703,23.64657,23.62857,2.428022,2.954551,2.257073,53.20466,43.18592,-19.99994,806.8814,8226,49.57342,45.49113,92.63378,90.45348,-26.99992,901.4112,12659.95,1,1,163.0401,45.00403,400.0192,399.9102,0.3680578,0.4839107,0.5581206,24.01486,11.76772,0,1.079176,0.01192707,0,0.01067106,0.0002269284,0.0002318987,0.0002427028,1.389157E-05,0.0004322731,0.0003865263,0.000273338,0.002630078,0.002532459,0.04754207,0.0462389,0.0005757842,0.05697709,0,0.01428001,0.01770322,0.02578248,0.03279424,0.0006521623,0.06117413,0.4974937,0,0,0.1160874,0.1246782,0.0211221,0.3441593,0.0001637682,0.000387806,0.0005588862,0.002034103,0.002143788,1,0,-80.4157,"NAN",1,0,960,0.4591241,158.9216,10.13202,16.54069,0,0,30.43466,30.30298,1,1,23.1232,9.546202
"2023-03-16 16:44:12.1",1325,23,0,100,301.6401,3.322804,0,29.99934,-0.9999855,73.52076,71.36307,0.02395392,23.67691,23.66165,2.430742,2.954941,2.259344,53.19645,43.22718,-19.99997,807.5422,8226,49.479,45.38037,92.45628,90.26132,-26.99995,902.057,12671,1,1,168.4644,138.9995,400.0025,400.0494,0.4064839,0.4569565,0.558118,24.05259,11.76628,0,0.3858656,0.004115358,0,0.01121233,0.0002463261,0.0002252768,0.000263134,1.389974E-05,0.00026131,0.0002699265,0.0002959029,0.003000196,0.003028394,0.06595783,0.06537446,0.0005776289,0.05809694,0,0.00412841,0.003941633,0.008092734,0.008255701,0.0006221331,0.05868539,0,0,0,0.1780679,0.1233321,0.01807063,0.1437749,4.208493E-05,0.0001581515,0.0005745502,0.001999868,0.00218499,1,0,-77.60568,"NAN",1,0,960,0.451124,159.7025,10.16101,16.55705,0,0,30.46768,30.33584,1,1,23.15258,9.547214
"2023-03-16 16:52:32.1",1350,20,0,100,1.135649,0.01716323,0,29.99876,-0.9999785,73.52106,71.36343,0.02395247,23.7037,23.69027,2.433511,2.955556,2.261346,53.20597,43.25408,-19.99995,808.2086,8226,53.54082,50.46846,99.92284,99.98822,-26.99991,902.7132,12669,1,1,168.4438,95.69068,400.0024,400.1019,0.3915156,0.4615448,0.5587327,24.08651,11.76818,0,0.5700627,0.006130701,0,0.01044316,0.0002549979,0.000209672,0.0002381721,1.228178E-05,0.0002098223,0.0003125088,0.0003068944,0.002936595,0.002991213,0.06069136,0.0664061,0.0006129777,0.05896169,0,0.008522912,0.01067219,0.01617428,0.01994183,0.0005597643,0.05423741,0,0,0,0.1841959,0.08866909,0.02137173,0.1975637,4.945629E-05,0.0002256018,0.0005470028,0.00178798,0.002164763,1,0,-79.94225,"NAN",1,0,960,0.442748,159.6513,10.18199,16.5629,0,0,30.51976,30.36874,1,1,23.17969,9.547385
"2023-03-16 17:00:52.1",1375,12,0,100,430.2041,4.699312,0,29.99967,-0.9999743,73.52132,71.36372,0.02395601,23.72736,23.71374,2.436257,2.952096,2.258342,53.14554,43.19412,-19.9999,808.8603,8226,47.82294,43.41882,89.40683,86.5018,-26.9999,903.3285,12662,1,1,170.2791,49.05692,399.9576,400.0038,0.3712843,0.4661583,0.5586815,24.12808,11.76882,0,0.2560166,0.00268984,0,0.01214269,0.000250954,0.0002226026,0.0002545944,1.201442E-05,0.0003035243,0.0002080415,0.0003017957,0.002231776,0.002279246,0.04248883,0.04522312,0.0005798132,0.05724921,0,0.00378783,0.003859892,0.007307491,0.00801737,0.0005655373,0.05729213,0,0,0,0.1219042,0.4535264,0.08065815,0.019053,0.0003973311,2.53023E-05,0.0006229768,0.001992673,0.002122737,1,0,-77.88496,"NAN",1,0,960,0.43375,159.1788,10.19289,16.53909,0,0,30.5433,30.40167,1,1,23.17998,9.548966
"2023-03-16 17:09:12.1",1400,10,0,100,433.567,4.737064,0,29.99981,-0.9999778,73.52202,71.36451,0.02395054,23.74417,23.72464,2.438884,2.951593,2.258914,53.13451,43.1994,-19.99998,809.4855,8226,47.77835,43.36922,89.32353,86.40427,-26.99996,903.9374,12659,1,1,170.1586,43.19733,400.0439,400.0439,0.3681805,0.4675348,0.5586111,24.1573,11.76862,0,0.2942263,0.002751974,0,0.008988519,0.0002518867,0.0002912217,0.0003161266,1.405186E-05,0.0002294812,0.0002629117,0.0003028127,0.001808461,0.001965597,0.0336608,0.03850625,0.0006598962,0.06421389,0,0.004352002,0.003975803,0.008597356,0.008453813,0.0005713275,0.05708105,0,0,0,0.1674197,0.6522734,0.1518932,0.3586799,0.0005013956,0.0004949638,0.0004627607,0.002070148,0.002194582,1,0,-80.09531,"NAN",1,0,960,0.4477966,158.8042,10.17317,16.51973,0,0,30.58325,30.43466,1,1,23.20905,9.541017
"2023-03-16 17:17:32.1",1425,26,4,100,986.3543,10.87047,0,30.00166,-0.9999847,73.52248,71.36511,0.02394757,23.75161,23.72639,2.441225,2.948707,2.255507,53.08132,43.1257,-19.99995,810.0721,8226,41.29144,35.58992,77.36645,71.41906,-27.00004,904.4716,12643,1,1,163.9339,0.1595566,393.0256,399.8535,0.2,0.4714307,0.5593948,24.18058,11.76686,0,1.047692,0.01109098,0,0.01088866,0.0002262889,0.00024084,0.0002540433,1.15471E-05,0.0002675595,0.0002094195,0.0002727146,0.00224588,0.001934681,0.04386684,0.03691944,0.0006014511,0.05955659,0,0.01132161,0.0126133,0.02004199,0.02421226,0.000569721,0.05782646,0,0,0,0.08975536,0.009689254,0.07239022,0.4604648,0,0.0004976408,0.0005643985,0.001955374,0.002073693,1,0,-78.81198,"NAN",1,0,960,0.4527739,158.5403,10.13293,16.53664,0,0,30.6,30.45947,1,1,23.20905,9.539927
"2023-03-16 17:25:52.1",1450,21,0,100,63.8982,0.7089078,0,29.99929,-0.9999868,73.52275,71.36534,0.02395481,23.74889,23.71624,2.443209,2.95425,2.262465,53.17931,43.25602,-19.99996,810.5901,8226,52.65871,49.36657,98.30418,97.88658,-26.99998,905.0137,12668,1,1,168.4801,104.943,400.0031,400.0289,0.3958382,0.4601274,0.5587285,24.18985,11.76697,0,0.08121625,0.0007363547,0,0.01098345,0.0002329495,0.0001498187,0.0002210695,1.191873E-05,0.0002359276,0.0002138369,0.0002796437,0.002235676,0.002296823,0.03727465,0.03985476,0.0006208161,0.05966398,0,0.004198429,0.00334455,0.007615232,0.006924742,0.0006293191,0.0598457,0,0,0,0.1882952,0.09601849,0.02257962,0.04769899,5.76419E-05,6.578889E-05,0.0005626851,0.002178786,0.002125338,1,0,-77.98971,"NAN",1,0,960,0.4516189,159.577,10.12405,16.57121,0,0,30.6,30.46735,1,1,23.20905,9.540178
"2023-03-16 17:34:12.1",1475,13,0,100,392.7607,4.290949,0,30.00014,-0.9999951,73.52318,71.36592,0.02395121,23.74188,23.70561,2.444855,2.9528,2.259831,53.15273,43.20218,-19.99999,811.0388,8226,48.29257,43.99913,90.27306,87.61392,-26.99995,905.45,12667,1,1,171.2224,46.65635,399.9595,400.0103,0.3701165,0.4668773,0.5585262,24.19088,11.76847,0,0.2218246,0.001794365,0,0.01124743,0.0002351935,0.0002181219,0.0002187425,1.289283E-05,0.0002477269,0.0002132253,0.0002824873,0.002351381,0.00228235,0.04273228,0.04216672,0.0005541712,0.05103096,0,0.003126981,0.002536129,0.005784107,0.005403232,0.0005411563,0.05478235,0,0,0,0.3317287,0.4310295,0.06291263,0.0217427,0.0004260977,3.851934E-05,0.0005773235,0.002289061,0.002076288,1,0,-79.47651,"NAN",1,0,960,0.4435392,159.9874,10.11877,16.59044,0,0,30.6,30.43483,1,1,23.20286,9.522831
"2023-03-16 17:41:52.1",1498,2,0,100,294.7572,3.263412,0,30.00065,-0.9999917,73.52332,71.36615,0.0239507,23.72581,23.69096,2.446117,2.953647,2.260462,53.15876,43.21622,-19.99996,811.3978,8226,49.5674,45.50822,92.61486,90.49752,-26.99995,905.7905,12666,1,1,163.2119,44.89861,400.0145,399.9036,0.3685483,0.4846882,0.5590667,24.18732,11.76815,0,1.025973,0.01147047,0,0.01037951,0.0002625715,0.0001964358,0.0002655454,1.282085E-05,0.0002281361,0.000245765,0.0003148013,0.001979504,0.002155314,0.03583461,0.0405941,0.0005849121,0.05721349,0,0.01334362,0.01697144,0.02436017,0.03223326,0.0005595874,0.05395767,0,0,0,0.1033715,0.1524941,0.02235534,0.3571799,0.0001336921,0.0004070036,0.0005389509,0.00200214,0.002107937,1,0,-80.32808,"NAN",1,0,960,0.4464667,159.9896,10.11989,16.59169,0,0,30.57219,30.43466,1,1,23.17969,9.516672